#Measurement data
#24.07.2016 08:31:49

#Time (days)	Power (W)
0.000002	2.930000
0.000016	3.000000
0.000027	3.000000
0.000039	2.930000
0.000050	2.930000
0.000062	2.930000
0.000074	2.930000
0.000086	2.930000
0.000097	2.930000
0.000109	2.930000
0.000121	2.930000
0.000132	2.930000
0.000144	2.930000
0.000156	3.000000
0.000167	3.000000
0.000179	3.000000
0.000190	2.930000
0.000202	2.930000
0.000213	2.930000
0.000225	2.930000
0.000236	2.930000
0.000248	3.000000
0.000260	3.000000
0.000271	3.000000
0.000283	3.000000
0.000294	2.930000
0.000306	2.930000
0.000318	2.930000
0.000330	2.930000
0.000341	2.930000
0.000352	2.930000
0.000364	2.930000
0.000375	2.930000
0.000387	3.000000
0.000399	3.000000
0.000410	3.000000
0.000457	3.000000
0.000460	2.930000
0.000468	2.930000
0.000479	2.930000
0.000491	2.930000
0.000503	2.930000
0.000514	2.930000
0.000526	2.930000
0.000537	3.000000
0.000549	3.000000
0.000561	2.930000
0.000572	2.930000
0.000584	2.930000
0.000595	2.930000
0.000607	2.930000
0.000619	2.930000
0.000630	2.930000
0.000641	2.930000
0.000653	2.930000
0.000665	2.930000
0.000676	2.930000
0.000688	2.930000
0.000699	2.930000
0.000711	2.930000
0.000723	2.930000
0.000734	2.930000
0.000746	2.930000
0.000757	2.930000
0.000769	2.930000
0.000816	2.930000
0.000818	2.930000
0.000827	2.930000
0.000838	2.930000
0.000850	2.930000
0.000861	2.930000
0.000873	2.930000
0.000885	2.930000
0.000898	2.930000
0.000908	3.000000
0.000919	3.000000
0.000931	3.000000
0.000942	1129.740000
0.000954	1129.740000
0.000965	1129.740000
0.000977	1129.740000
0.000989	1125.380000
0.001000	1125.380000
0.001012	1125.380000
0.001023	1121.160000
0.001035	1121.160000
0.001047	1118.510000
0.001058	1118.510000
0.001070	1118.510000
0.001081	1118.150000
0.001093	1118.150000
0.001104	1118.150000
0.001116	1118.150000
0.001127	1117.800000
0.001139	1117.800000
0.001151	1117.800000
0.001162	1117.870000
0.001174	1117.870000
0.001185	1117.870000
0.001197	1116.290000
0.001208	1116.290000
0.001220	1117.010000
0.001232	1117.010000
0.001243	1117.010000
0.001257	1107.070000
0.001267	1107.070000
0.001278	1107.070000
0.001290	1107.070000
0.001301	1104.060000
0.001313	1104.060000
0.001324	1104.060000
0.001336	1104.780000
0.001347	1104.780000
0.001359	1105.070000
0.001371	1105.070000
0.001382	1105.070000
0.001394	1104.710000
0.001405	1104.710000
0.001417	1104.710000
0.001428	1104.710000
0.001440	1104.710000
0.001452	1104.710000
0.001463	1104.710000
0.001475	1103.920000
0.001486	1103.920000
0.001498	1103.920000
0.001509	1103.280000
0.001521	1103.280000
0.001533	1103.280000
0.001544	1103.280000
0.001556	1103.280000
0.001567	1105.140000
0.001579	1105.140000
0.001591	1105.140000
0.001602	1105.140000
0.001614	1105.640000
0.001625	1105.640000
0.001637	1105.640000
0.001648	1105.420000
0.001660	1105.420000
0.001671	1105.420000
0.001683	1106.570000
0.001695	1106.570000
0.001706	1105.490000
0.001718	1105.490000
0.001730	1105.490000
0.001741	1105.280000
0.001752	1105.280000
0.001764	1105.280000
0.001776	1105.280000
0.001788	1104.210000
0.001799	1104.210000
0.001810	1104.210000
0.001822	1103.490000
0.001834	1103.490000
0.001845	1103.630000
0.001857	1103.630000
0.001868	1103.630000
0.001880	1105.920000
0.001892	1105.920000
0.001903	1105.920000
0.001915	1105.850000
0.001927	1105.850000
0.001938	1105.850000
0.001949	1105.850000
0.001961	1106.140000
0.001972	1106.140000
0.001984	1106.140000
0.001996	1106.780000
0.002007	1106.780000
0.002019	1107.570000
0.002030	1107.570000
0.002042	1107.570000
0.002053	1106.570000
0.002065	1106.570000
0.002077	1106.570000
0.002088	1106.570000
0.002100	1106.070000
0.002111	1106.070000
0.002123	1106.070000
0.002135	1106.710000
0.002146	1106.710000
0.002158	1106.710000
0.002169	1107.640000
0.002181	1107.640000
0.002193	1107.850000
0.002204	1107.850000
0.002215	1107.850000
0.002227	1107.140000
0.002239	1107.140000
0.002250	1107.140000
0.002262	1107.140000
0.002274	1107.140000
0.002285	1107.140000
0.002297	1107.140000
0.002308	1107.280000
0.002320	1107.280000
0.002331	1106.920000
0.002343	1106.920000
0.002354	1106.920000
0.002366	1106.280000
0.002378	1106.280000
0.002389	1106.280000
0.002401	1105.780000
0.002412	1105.780000
0.002424	1105.780000
0.002435	1105.780000
0.002447	1106.920000
0.002459	1106.920000
0.002470	1106.920000
0.002482	1106.500000
0.002493	1106.500000
0.002505	1106.000000
0.002517	1106.000000
0.002528	1106.000000
0.002540	1106.920000
0.002551	1106.920000
0.002563	1106.920000
0.002574	1106.920000
0.002586	1107.070000
0.002597	1107.070000
0.002609	1107.070000
0.002621	1107.210000
0.002632	1107.210000
0.002644	1107.210000
0.002655	1106.210000
0.002667	1106.210000
0.002679	1106.350000
0.002690	1106.350000
0.002702	1106.350000
0.002713	1105.280000
0.002725	1105.280000
0.002736	1105.280000
0.002748	1105.280000
0.002760	1103.850000
0.002771	1103.850000
0.002783	1103.850000
0.002795	1105.140000
0.002806	1105.140000
0.002817	1104.850000
0.002829	1104.850000
0.002841	1104.850000
0.002852	1105.850000
0.002864	1105.850000
0.002875	1105.850000
0.002887	1106.640000
0.002899	1106.640000
0.002910	1106.640000
0.002922	1106.640000
0.002933	1103.490000
0.002945	1103.490000
0.002956	1103.490000
0.002968	1099.560000
0.002979	1099.560000
0.002991	1099.560000
0.003003	1099.560000
0.003014	1099.560000
0.003026	1095.620000
0.003037	1095.620000
0.003049	1095.620000
0.003060	1095.620000
0.003072	1097.840000
0.003084	1097.840000
0.003095	1097.840000
0.003107	1098.560000
0.003119	1098.560000
0.003130	1098.560000
0.003142	1101.990000
0.003154	1101.990000
0.003165	1102.490000
0.003176	1102.490000
0.003188	1102.490000
0.003200	1102.850000
0.003211	1102.850000
0.003223	1102.850000
0.003234	1102.850000
0.003246	1107.070000
0.003258	1107.070000
0.003269	1107.070000
0.003280	1107.640000
0.003292	1107.640000
0.003304	1107.710000
0.003315	1107.710000
0.003327	1107.710000
0.003338	1108.140000
0.003350	1108.140000
0.003362	1108.140000
0.003373	1107.640000
0.003385	1107.640000
0.003396	1107.640000
0.003408	1107.640000
0.003420	1107.640000
0.003431	1107.640000
0.003442	1107.640000
0.003454	1107.780000
0.003466	1107.780000
0.003477	1107.930000
0.003489	1107.930000
0.003500	1107.930000
0.003512	1107.570000
0.003523	1107.570000
0.003535	1107.570000
0.003547	1107.570000
0.003558	1107.210000
0.003570	1107.210000
0.003581	1107.210000
0.003593	1107.780000
0.003604	1107.780000
0.003616	1107.780000
0.003628	1108.280000
0.003639	1108.280000
0.003651	1108.140000
0.003662	1108.140000
0.003674	1108.140000
0.003685	1108.140000
0.003697	1108.140000
0.003709	1108.140000
0.003720	1108.140000
0.003732	1108.140000
0.003744	1108.140000
0.003755	1108.140000
0.003766	1106.710000
0.003778	1106.710000
0.003790	1107.070000
0.003801	1107.070000
0.003813	1107.070000
0.003824	1106.920000
0.003836	1106.920000
0.003848	1106.920000
0.003860	1106.420000
0.003871	1106.420000
0.003882	1106.420000
0.003894	1106.420000
0.003905	1105.280000
0.003917	1105.280000
0.003929	1105.280000
0.003940	1105.210000
0.003952	1105.210000
0.003963	1103.780000
0.003975	1103.780000
0.003987	1103.780000
0.003998	1101.560000
0.004010	1101.560000
0.004021	1101.560000
0.004033	1100.700000
0.004044	1100.700000
0.004056	1100.700000
0.004067	1100.700000
0.004079	1098.630000
0.004091	1098.630000
0.004102	1098.630000
0.004114	1099.920000
0.004125	1099.920000
0.004137	1102.490000
0.004148	1102.490000
0.004160	1102.490000
0.004172	1101.270000
0.004184	1101.270000
0.004195	1101.270000
0.004207	1101.270000
0.004220	27.750000
0.004231	27.750000
0.004242	27.750000
0.004254	3.500000
0.004265	3.500000
0.004277	3.430000
0.004289	3.430000
0.004300	3.430000
0.004312	3.500000
0.004324	3.500000
0.004335	3.500000
0.004346	3.500000
0.004358	3.500000
0.004370	3.500000
0.004381	3.500000
0.004393	3.500000
0.004405	3.500000
0.004416	3.500000
0.004428	3.500000
0.004439	3.500000
0.004451	3.500000
0.004463	3.500000
0.004474	3.500000
0.004485	3.500000
0.004497	3.500000
0.004509	3.500000
0.004520	3.500000
0.004532	3.500000
0.004543	3.500000
0.004555	3.500000
0.004567	3.500000
0.004578	3.500000
0.004590	3.500000
0.004601	3.500000
0.004613	3.500000
0.004624	3.500000
0.004636	3.500000
0.004648	3.500000
0.004659	3.500000
0.004670	3.500000
0.004682	3.500000
0.004694	3.500000
0.004705	3.500000
0.004717	3.500000
0.004728	3.500000
0.004740	3.500000
0.004752	3.500000
0.004763	3.500000
0.004775	3.500000
0.004787	3.500000
0.004798	3.500000
0.004845	3.500000
0.004847	3.430000
0.004856	3.430000
0.004868	3.500000
0.004879	3.500000
0.004890	3.500000
0.004902	3.500000
0.004914	3.430000
0.004925	3.430000
0.004937	3.500000
0.004948	3.500000
0.004960	3.500000
0.004976	3.430000
0.004983	3.430000
0.004995	3.430000
0.005006	3.500000
0.005018	3.500000
0.005030	3.500000
0.005041	3.500000
0.005053	3.500000
0.005064	3.500000
0.005076	3.500000
0.005087	3.430000
0.005099	3.430000
0.005111	3.500000
0.005122	3.500000
0.005134	3.500000
0.005145	3.430000
0.005157	3.430000
0.005169	3.430000
0.005180	3.430000
0.005191	3.430000
0.005203	3.430000
0.005215	3.430000
0.005226	3.500000
0.005238	3.500000
0.005249	3.500000
0.005261	3.500000
0.005272	3.500000
0.005284	3.500000
0.005296	3.500000
0.005307	3.500000
0.005319	3.430000
0.005330	3.430000
0.005342	3.430000
0.005353	3.500000
0.005365	3.500000
0.005377	3.500000
0.005388	3.500000
0.005400	3.430000
0.005411	3.430000
0.005423	3.430000
0.005435	3.500000
0.005446	3.500000
0.005458	3.430000
0.005469	3.430000
0.005481	3.430000
0.005493	3.430000
0.005504	3.430000
0.005516	3.430000
0.005527	3.430000
0.005539	3.430000
0.005550	3.430000
0.005562	3.430000
0.005573	3.430000
0.005585	3.430000
0.005597	3.430000
0.005608	3.430000
0.005620	3.430000
0.005631	3.430000
0.005643	3.430000
0.005654	3.430000
0.005666	3.500000
0.005678	3.500000
0.005689	3.500000
0.005701	3.500000
0.005712	3.430000
0.005724	3.430000
0.005736	3.430000
0.005747	3.430000
0.005760	3.430000
0.005770	3.430000
0.005782	3.430000
0.005793	3.430000
0.005805	3.430000
0.005816	3.430000
0.005828	3.430000
0.005840	3.430000
0.005851	3.430000
0.005863	3.430000
0.005875	3.430000
0.005886	3.430000
0.005897	3.430000
0.005909	3.430000
0.005921	3.430000
0.005932	3.430000
0.005944	3.500000
0.005955	3.500000
0.005967	3.500000
0.005979	3.500000
0.005990	3.500000
0.006002	3.500000
0.006013	3.430000
0.006025	3.430000
0.006036	3.430000
0.006048	3.430000
0.006060	624.770000
0.006071	624.770000
0.006083	624.770000
0.006094	1113.000000
0.006106	1113.000000
0.006117	1109.710000
0.006129	1109.710000
0.006141	1109.710000
0.006152	1107.210000
0.006164	1107.210000
0.006175	1107.210000
0.006187	3.430000
0.006198	3.430000
0.006210	3.430000
0.006221	3.430000
0.006234	3.430000
0.006245	3.430000
0.006256	3.500000
0.006268	3.500000
0.006280	3.500000
0.006291	3.500000
0.006303	3.500000
0.006314	3.500000
0.006326	3.430000
0.006338	3.430000
0.006350	3.430000
0.006360	3.430000
0.006372	3.500000
0.006383	3.500000
0.006395	3.500000
0.006407	3.500000
0.006419	3.500000
0.006430	3.500000
0.006442	3.500000
0.006453	3.500000
0.006465	3.430000
0.006476	3.430000
0.006488	3.430000
0.006499	3.500000
0.006511	3.500000
0.006523	3.500000
0.006534	3.500000
0.006546	3.430000
0.006557	3.430000
0.006569	3.430000
0.006581	3.430000
0.006592	3.430000
0.006604	3.430000
0.006615	3.430000
0.006627	3.430000
0.006638	3.430000
0.006650	3.430000
0.006661	3.430000
0.006673	3.430000
0.006685	3.430000
0.006696	3.430000
0.006708	3.430000
0.006719	3.430000
0.006731	3.430000
0.006742	3.500000
0.006754	3.500000
0.006766	3.500000
0.006777	3.640000
0.006789	3.640000
0.006800	3.640000
0.006812	3.570000
0.006824	3.570000
0.006835	3.570000
0.006847	3.640000
0.006858	3.640000
0.006870	3.640000
0.006881	3.640000
0.006893	3.640000
0.006905	3.640000
0.006916	3.640000
0.006928	3.640000
0.006939	3.640000
0.006951	3.710000
0.006962	3.710000
0.006974	3.710000
0.006986	3.640000
0.006997	3.640000
0.007009	3.640000
0.007020	3.640000
0.007032	3.640000
0.007043	3.640000
0.007055	3.640000
0.007067	3.640000
0.007078	3.640000
0.007090	3.640000
0.007101	3.640000
0.007113	3.640000
0.007124	3.640000
0.007136	3.640000
0.007148	3.640000
0.007159	3.640000
0.007171	3.640000
0.007183	3.640000
0.007194	3.640000
0.007205	3.640000
0.007217	3.640000
0.007229	3.640000
0.007240	3.640000
0.007252	3.640000
0.007263	3.640000
0.007275	3.640000
0.007287	3.640000
0.007298	3.640000
0.007310	3.640000
0.007321	3.640000
0.007333	3.640000
0.007344	3.640000
0.007356	3.640000
0.007367	3.640000
0.007379	3.640000
0.007391	3.640000
0.007402	3.640000
0.007414	3.570000
0.007425	3.570000
0.007437	3.640000
0.007449	3.640000
0.007460	3.640000
0.007472	3.640000
0.007484	3.640000
0.007495	3.640000
0.007507	3.640000
0.007518	3.640000
0.007530	3.640000
0.007542	3.640000
0.007553	3.640000
0.007565	3.640000
0.007577	3.570000
0.007588	3.570000
0.007600	3.570000
0.007612	3.570000
0.007623	3.570000
0.007635	3.570000
0.007647	3.570000
0.007658	3.570000
0.007670	3.570000
0.007681	3.570000
0.007693	3.570000
0.007704	3.570000
0.007716	3.570000
0.007728	3.640000
0.007739	3.640000
0.007751	3.570000
0.007762	3.570000
0.007774	3.570000
0.007786	3.570000
0.007797	3.570000
0.007809	3.570000
0.007820	3.570000
0.007832	3.570000
0.007843	3.570000
0.007855	3.570000
0.007867	3.570000
0.007878	3.570000
0.007890	3.570000
0.007901	3.570000
0.007913	3.570000
0.007925	3.640000
0.007936	3.640000
0.007947	3.640000
0.007959	3.640000
0.007971	3.640000
0.007982	3.640000
0.007994	3.640000
0.008005	3.640000
0.008017	3.640000
0.008029	3.640000
0.008040	3.570000
0.008052	3.570000
0.008063	3.570000
0.008075	3.570000
0.008087	3.570000
0.008098	3.570000
0.008110	3.570000
0.008121	3.570000
0.008133	3.640000
0.008144	3.640000
0.008156	3.640000
0.008167	3.640000
0.008179	3.640000
0.008191	3.640000
0.008202	3.640000
0.008214	3.640000
0.008226	3.640000
0.008237	3.640000
0.008248	3.640000
0.008260	3.640000
0.008272	3.640000
0.008283	3.640000
0.008295	3.640000
0.008306	3.640000
0.008318	3.640000
0.008329	3.640000
0.008341	3.640000
0.008353	3.640000
0.008364	3.640000
0.008376	3.640000
0.008388	3.640000
0.008399	3.640000
0.008410	3.640000
0.008422	3.640000
0.008433	3.640000
0.008445	623.410000
0.008457	623.410000
0.008468	623.410000
0.008480	1146.550000
0.008492	1146.550000
0.008503	1146.550000
0.008515	1141.040000
0.008526	1141.040000
0.008538	1141.040000
0.008550	1141.040000
0.008561	1139.110000
0.008573	1139.110000
0.008584	63.800000
0.008596	63.800000
0.008607	63.800000
0.008619	3.570000
0.008631	3.570000
0.008642	3.570000
0.008654	3.570000
0.008665	3.570000
0.008677	3.570000
0.008688	3.570000
0.008700	3.570000
0.008711	3.570000
0.008723	3.570000
0.008735	3.570000
0.008746	3.570000
0.008758	3.640000
0.008769	3.640000
0.008781	3.640000
0.008793	3.640000
0.008804	3.640000
0.008816	3.640000
0.008828	3.640000
0.008839	3.640000
0.008850	3.640000
0.008862	3.640000
0.008873	3.640000
0.008885	3.640000
0.008897	3.640000
0.008908	3.640000
0.008920	3.640000
0.008932	3.640000
0.008943	3.640000
0.008954	3.640000
0.008966	3.640000
0.008977	3.640000
0.008989	3.640000
0.009001	3.640000
0.009012	3.640000
0.009024	3.640000
0.009036	3.640000
0.009047	3.640000
0.009059	3.640000
0.009070	3.640000
0.009082	3.640000
0.009093	3.640000
0.009105	3.640000
0.009117	3.640000
0.009128	3.640000
0.009140	3.640000
0.009151	3.640000
0.009163	3.640000
0.009175	3.640000
0.009186	3.640000
0.009197	3.640000
0.009209	3.640000
0.009221	3.640000
0.009232	3.640000
0.009244	3.640000
0.009255	3.640000
0.009267	3.640000
0.009279	3.640000
0.009290	3.640000
0.009302	3.640000
0.009314	3.640000
0.009325	3.640000
0.009337	3.640000
0.009348	3.640000
0.009360	3.640000
0.009371	3.640000
0.009383	3.640000
0.009394	3.640000
0.009406	3.640000
0.009418	3.570000
0.009429	3.570000
0.009441	3.570000
0.009452	3.570000
0.009464	3.570000
0.009475	3.570000
0.009487	3.570000
0.009499	3.570000
0.009510	3.570000
0.009522	3.570000
0.009533	3.570000
0.009545	3.570000
0.009556	3.570000
0.009568	3.570000
0.009580	3.570000
0.009591	3.570000
0.009603	3.570000
0.009614	3.570000
0.009626	3.570000
0.009637	3.570000
0.009649	3.570000
0.009661	3.570000
0.009672	3.570000
0.009684	3.570000
0.009695	3.570000
0.009707	3.640000
0.009719	3.640000
0.009730	3.570000
0.009742	3.570000
0.009753	3.570000
0.009765	3.640000
0.009776	3.640000
0.009788	3.640000
0.009799	3.640000
0.009811	3.640000
0.009823	3.640000
0.009834	3.570000
0.009846	3.570000
0.009858	3.570000
0.009869	3.570000
0.009880	3.640000
0.009892	3.640000
0.009904	3.640000
0.009915	3.640000
0.009927	3.640000
0.009938	3.570000
0.009950	3.570000
0.009962	3.570000
0.009973	3.570000
0.009985	3.570000
0.009996	3.570000
0.010008	3.570000
0.010020	3.570000
0.010031	3.570000
0.010043	3.640000
0.010054	3.640000
0.010066	3.640000
0.010077	3.570000
0.010089	3.570000
0.010100	3.570000
0.010112	3.570000
0.010124	3.570000
0.010135	3.570000
0.010147	3.570000
0.010158	3.570000
0.010170	3.570000
0.010181	3.570000
0.010193	3.640000
0.010205	3.640000
0.010216	3.640000
0.010228	3.640000
0.010239	3.640000
0.010251	3.640000
0.010262	3.640000
0.010274	3.640000
0.010285	3.640000
0.010297	3.640000
0.010309	3.640000
0.010320	3.570000
0.010332	3.570000
0.010343	3.570000
0.010355	3.570000
0.010367	3.640000
0.010378	3.640000
0.010390	3.640000
0.010401	3.640000
0.010413	3.640000
0.010424	3.640000
0.010436	3.640000
0.010448	3.640000
0.010459	3.640000
0.010471	3.640000
0.010482	3.640000
0.010494	3.640000
0.010505	3.640000
0.010517	3.640000
0.010529	3.640000
0.010540	3.640000
0.010552	3.640000
0.010563	3.570000
0.010575	3.570000
0.010587	3.570000
0.010598	3.640000
0.010610	3.640000
0.010621	3.640000
0.010633	3.640000
0.010645	3.640000
0.010656	3.640000
0.010668	3.640000
0.010679	3.570000
0.010691	3.570000
0.010702	3.640000
0.010714	3.640000
0.010725	3.640000
0.010737	3.570000
0.010749	3.570000
0.010762	3.570000
0.010772	3.570000
0.010783	3.570000
0.010795	3.570000
0.010807	3.570000
0.010818	3.570000
0.010830	3.570000
0.010841	3.570000
0.010853	3.570000
0.010864	3.570000
0.010876	3.570000
0.010887	3.570000
0.010899	3.570000
0.010911	3.570000
0.010922	3.570000
0.010934	3.570000
0.010945	3.570000
0.010957	3.570000
0.010968	3.570000
0.010980	3.640000
0.010991	3.640000
0.011003	3.640000
0.011015	3.640000
0.011026	3.640000
0.011038	3.640000
0.011050	3.570000
0.011061	3.570000
0.011072	3.570000
0.011084	3.570000
0.011096	3.570000
0.011107	3.570000
0.011119	3.640000
0.011131	3.640000
0.011142	3.640000
0.011154	3.640000
0.011165	3.640000
0.011177	3.640000
0.011188	3.640000
0.011200	3.640000
0.011211	3.640000
0.011223	1142.040000
0.011235	1142.040000
0.011246	1142.040000
0.011258	1137.180000
0.011269	1137.180000
0.011281	1137.180000
0.011292	1129.740000
0.011304	1129.740000
0.011316	1129.740000
0.011327	1129.740000
0.011339	643.150000
0.011350	643.150000
0.011362	3.570000
0.011374	3.570000
0.011385	3.570000
0.011397	3.640000
0.011408	3.640000
0.011420	3.640000
0.011431	3.570000
0.011443	3.570000
0.011454	3.570000
0.011466	3.640000
0.011478	3.640000
0.011489	3.640000
0.011501	3.640000
0.011513	3.640000
0.011524	3.640000
0.011535	3.570000
0.011547	3.570000
0.011559	3.570000
0.011570	3.570000
0.011582	3.570000
0.011594	3.570000
0.011605	3.570000
0.011617	3.570000
0.011628	3.570000
0.011640	3.640000
0.011651	3.640000
0.011663	3.640000
0.011675	3.640000
0.011686	3.640000
0.011698	3.640000
0.011709	3.570000
0.011721	3.570000
0.011732	3.570000
0.011744	3.570000
0.011755	3.570000
0.011767	3.570000
0.011779	3.570000
0.011790	3.570000
0.011802	3.570000
0.011813	3.570000
0.011825	3.640000
0.011837	3.640000
0.011848	3.570000
0.011860	3.570000
0.011871	3.570000
0.011883	3.570000
0.011894	3.570000
0.011906	3.570000
0.011918	3.570000
0.011929	3.570000
0.011941	3.570000
0.011952	3.570000
0.011964	3.570000
0.011975	3.570000
0.011987	3.570000
0.011999	3.640000
0.012010	3.640000
0.012022	3.570000
0.012033	3.570000
0.012045	3.570000
0.012056	3.570000
0.012068	3.570000
0.012080	3.570000
0.012091	3.570000
0.012103	3.570000
0.012114	3.570000
0.012126	3.570000
0.012137	3.570000
0.012149	3.570000
0.012160	3.570000
0.012172	3.570000
0.012184	3.570000
0.012195	3.570000
0.012207	3.570000
0.012218	3.570000
0.012230	3.570000
0.012242	3.570000
0.012253	3.570000
0.012265	3.570000
0.012276	3.570000
0.012288	3.570000
0.012299	3.570000
0.012311	3.570000
0.012323	3.570000
0.012334	3.570000
0.012346	3.570000
0.012357	3.570000
0.012369	3.570000
0.012380	3.570000
0.012392	3.570000
0.012404	3.570000
0.012415	3.570000
0.012427	3.570000
0.012438	3.500000
0.012450	3.500000
0.012462	3.500000
0.012473	3.500000
0.012485	3.570000
0.012496	3.570000
0.012508	3.570000
0.012519	3.570000
0.012531	3.570000
0.012542	3.570000
0.012554	3.570000
0.012566	3.570000
0.012577	3.570000
0.012589	3.570000
0.012601	3.570000
0.012612	3.570000
0.012624	3.570000
0.012635	3.570000
0.012647	3.570000
0.012658	3.570000
0.012670	3.570000
0.012682	3.570000
0.012693	3.570000
0.012705	3.570000
0.012716	3.570000
0.012728	3.570000
0.012739	3.570000
0.012751	3.500000
0.012763	3.500000
0.012774	3.500000
0.012786	3.500000
0.012797	3.500000
0.012809	3.500000
0.012820	3.500000
0.012832	3.570000
0.012843	3.570000
0.012855	3.500000
0.012867	3.500000
0.012878	3.500000
0.012890	3.570000
0.012901	3.570000
0.012913	3.570000
0.012924	3.500000
0.012936	3.500000
0.012948	3.500000
0.012959	3.570000
0.012971	3.570000
0.012982	3.570000
0.012994	3.570000
0.013006	3.570000
0.013017	3.570000
0.013029	3.500000
0.013040	3.500000
0.013052	3.500000
0.013063	3.500000
0.013075	3.500000
0.013087	3.500000
0.013098	3.570000
0.013110	3.570000
0.013121	3.570000
0.013133	3.570000
0.013145	3.570000
0.013156	3.570000
0.013168	3.570000
0.013180	3.570000
0.013190	3.570000
