#Measurement data
#16.05.2022 13:31:20

#Time (days)	Power (W)	Current (A)
0.000019	0.070000	0.006100
0.000032	0.070000	0.006100
0.000043	0.070000	0.006100
0.000055	0.070000	0.006100
0.000067	0.070000	0.006100
0.000078	0.070000	0.006100
0.000091	0.070000	0.006100
0.000104	0.070000	0.006200
0.000113	0.070000	0.006200
0.000126	0.070000	0.006200
0.000138	0.070000	0.006100
0.000150	0.070000	0.006100
0.000159	0.070000	0.006100
0.000171	0.070000	0.006100
0.000182	0.070000	0.006100
0.000194	0.070000	0.006200
0.000205	0.070000	0.006200
0.000217	0.070000	0.006200
0.000229	0.070000	0.006100
0.000241	0.070000	0.006100
0.000252	0.070000	0.006100
0.000264	0.070000	0.006100
0.000275	0.070000	0.006100
0.000289	0.070000	0.006100
0.000298	0.070000	0.006100
0.000310	0.070000	0.006100
0.000321	0.070000	0.006100
0.000333	0.070000	0.006100
0.000344	0.070000	0.006200
0.000356	0.070000	0.006200
0.000368	0.070000	0.006100
0.000380	0.070000	0.006100
0.000391	0.070000	0.006100
0.000403	0.070000	0.006100
0.000414	0.070000	0.006100
0.000426	0.070000	0.006100
0.000438	0.070000	0.006100
0.000449	8.440000	0.159400
0.000461	8.440000	0.159400
0.000473	8.440000	0.159400
0.000486	11.220000	0.165500
0.000496	11.220000	0.165500
0.000508	11.220000	0.165500
0.000519	3.430000	0.053500
0.000531	3.430000	0.053500
0.000543	3.000000	0.047300
0.000555	3.000000	0.047300
0.000566	3.000000	0.047300
0.000577	3.140000	0.049400
0.000589	3.140000	0.049400
0.000600	3.140000	0.049400
0.000612	3.140000	0.049400
0.000625	1.850000	0.035800
0.000636	1.850000	0.035800
0.000647	1.850000	0.035800
0.000658	0.070000	0.006100
0.000670	0.070000	0.006100
0.000681	0.070000	0.006100
0.000693	0.070000	0.006100
0.000704	0.070000	0.006100
0.000717	0.070000	0.006100
0.000763	0.070000	0.006100
0.000765	0.140000	0.006100
0.000787	0.140000	0.006100
0.000789	0.070000	0.006200
0.000797	0.070000	0.006200
0.000809	0.070000	0.006200
0.000821	0.070000	0.006200
0.000832	0.070000	0.006100
0.000844	0.070000	0.006100
0.000856	0.070000	0.006100
0.000868	0.070000	0.006100
0.000879	0.070000	0.006100
0.000891	0.070000	0.006200
0.000902	0.070000	0.006200
0.000914	0.070000	0.006200
0.000925	0.070000	0.006100
0.000937	0.070000	0.006100
0.000949	0.070000	0.006100
0.000960	0.070000	0.006100
0.000971	0.070000	0.006200
0.000983	0.070000	0.006200
0.000995	0.070000	0.006200
0.001006	0.070000	0.006200
0.001019	0.070000	0.006200
0.001030	0.070000	0.006100
0.001043	0.070000	0.006100
0.001053	0.070000	0.006100
0.001064	0.070000	0.006100
0.001077	0.070000	0.006100
0.001088	0.070000	0.006100
0.001100	0.070000	0.006100
0.001111	0.070000	0.006100
0.001123	0.070000	0.006100
0.001134	0.070000	0.006100
0.001145	0.070000	0.006100
0.001157	0.070000	0.006100
0.001168	0.070000	0.006100
0.001180	0.070000	0.006100
0.001193	0.070000	0.006100
0.001204	0.070000	0.006100
0.001215	0.070000	0.006100
0.001227	0.070000	0.006100
0.001238	3.290000	0.039400
0.001250	3.290000	0.039400
0.001261	3.290000	0.039400
0.001273	7.360000	0.123900
0.001285	7.360000	0.123900
0.001296	7.360000	0.123900
0.001308	7.360000	0.123900
0.001319	15.870000	0.222100
0.001331	15.870000	0.222100
0.001344	15.870000	0.222100
0.001354	12.730000	0.159100
0.001366	12.730000	0.159100
0.001378	11.010000	0.136300
0.001389	11.010000	0.136300
0.001400	11.010000	0.136300
0.001412	10.510000	0.132100
0.001425	10.510000	0.132100
0.001436	10.510000	0.132100
0.001447	10.510000	0.131900
0.001458	10.510000	0.131900
0.001470	10.510000	0.131900
0.001482	10.510000	0.131900
0.001494	10.290000	0.130300
0.001505	10.290000	0.130300
0.001516	10.290000	0.130300
0.001528	8.650000	0.115400
0.001540	8.650000	0.115400
0.001551	4.570000	0.068300
0.001563	4.570000	0.068300
0.001574	4.570000	0.068300
0.001586	4.640000	0.068700
0.001597	4.640000	0.068700
0.001609	4.640000	0.068700
0.001620	4.570000	0.068900
0.001632	4.570000	0.068900
0.001644	4.570000	0.068900
0.001655	4.570000	0.068900
0.001667	4.640000	0.068800
0.001678	4.640000	0.068800
0.001690	4.640000	0.068800
0.001703	4.570000	0.069000
0.001714	4.570000	0.069000
0.001725	4.570000	0.069400
0.001736	4.570000	0.069400
0.001748	4.570000	0.069400
0.001761	4.570000	0.068400
0.001772	4.570000	0.068400
0.001783	4.570000	0.068400
0.001830	12.010000	0.187100
0.001832	11.870000	0.143200
0.001842	11.870000	0.143200
0.002096	11.870000	0.143200
0.002099	19.660000	0.118700
0.002108	19.740000	0.118400
0.002120	19.740000	0.118400
0.002131	19.740000	0.118400
0.002143	19.590000	0.118000
0.002154	19.590000	0.118000
0.002166	19.590000	0.118000
0.002178	19.590000	0.118000
0.002189	19.740000	0.118100
0.002201	19.740000	0.118100
0.002212	15.020000	0.094800
0.002224	15.020000	0.094800
0.002236	15.020000	0.094800
0.002247	15.020000	0.094600
0.002259	15.020000	0.094600
0.002270	15.020000	0.094600
0.002282	14.940000	0.094200
0.002293	14.940000	0.094200
0.002305	14.940000	0.094200
0.002318	14.940000	0.094200
0.002329	14.940000	0.094200
0.002340	14.940000	0.094200
0.002351	14.940000	0.094200
0.002363	14.940000	0.094300
0.002375	14.940000	0.094300
0.002386	14.940000	0.094200
0.002398	14.940000	0.094200
0.002409	14.940000	0.094200
0.002421	28.610000	0.269900
0.002433	28.610000	0.269900
0.002444	28.610000	0.269900
0.002456	45.410000	0.444600
0.002467	45.410000	0.444600
0.002479	45.410000	0.444600
0.002490	45.410000	0.444600
0.002502	14.870000	0.094200
0.002514	14.870000	0.094200
0.002526	14.870000	0.094200
0.002537	33.400000	0.295700
0.002550	33.400000	0.295700
0.002560	53.640000	0.536500
0.002572	53.640000	0.536500
0.002595	53.640000	0.536500
0.002597	53.780000	0.541500
0.002607	53.780000	0.541500
0.002618	53.780000	0.541500
0.002630	53.710000	0.538800
0.002641	53.710000	0.538800
0.002653	53.710000	0.538800
0.002665	53.710000	0.535900
0.002676	53.710000	0.535900
0.002688	53.710000	0.535900
0.002700	53.710000	0.535900
0.002711	50.640000	0.607600
0.002722	50.640000	0.607600
0.002734	51.640000	0.618700
0.002745	51.640000	0.618700
0.002760	51.640000	0.618700
0.002768	51.780000	0.619700
0.002780	51.780000	0.619700
0.002792	51.780000	0.619700
0.002803	51.850000	0.618400
0.002815	51.850000	0.618400
0.002827	51.850000	0.618400
0.002838	51.850000	0.618400
0.002849	51.710000	0.618600
0.002861	51.710000	0.618600
0.002873	51.780000	0.616900
0.002885	51.780000	0.616900
0.002896	51.780000	0.616900
0.002910	51.710000	0.614900
0.002921	51.710000	0.614900
0.002966	51.710000	0.614900
0.002968	51.780000	0.615500
0.002989	51.710000	0.619100
0.002991	51.710000	0.619100
0.003001	51.710000	0.619100
0.003011	51.710000	0.619100
0.003023	51.710000	0.617500
0.003035	51.710000	0.617500
0.003047	51.710000	0.614700
0.003058	51.710000	0.614700
0.003070	51.710000	0.614700
0.003081	51.780000	0.616400
0.003093	51.780000	0.616400
0.003105	51.780000	0.616400
0.003116	51.640000	0.615100
0.003128	51.640000	0.615100
0.003140	51.640000	0.615100
0.003151	51.710000	0.613200
0.003163	51.710000	0.613200
0.003174	51.710000	0.613200
0.003222	51.710000	0.613200
0.003224	51.710000	0.617900
0.003232	51.710000	0.617900
0.003244	51.710000	0.617900
0.003255	51.710000	0.617400
0.003267	51.710000	0.617400
0.003279	51.710000	0.617400
0.003290	2208.130000	9.447700
0.003302	2208.130000	9.447700
0.003325	2208.130000	9.447700
0.003328	2194.900000	9.391800
0.003337	2194.900000	9.391800
0.003349	2194.900000	9.391800
0.003360	2169.580000	9.280700
0.003372	2169.580000	9.280700
0.003383	2169.580000	9.280700
0.003395	2165.150000	9.268900
0.003406	2165.150000	9.268900
0.003418	2165.150000	9.268900
0.003429	2152.700000	9.242700
0.003441	2152.700000	9.242700
0.003452	2152.700000	9.242700
0.003464	2171.800000	9.337900
0.003475	2171.800000	9.337900
0.003487	2171.800000	9.337900
0.003499	2171.800000	9.337900
0.003510	2167.720000	9.315900
0.003522	2167.720000	9.315900
0.003533	2149.340000	9.218500
0.003545	2149.340000	9.218500
0.003557	2149.340000	9.218500
0.003568	2152.060000	9.218100
0.003580	2152.060000	9.218100
0.003591	2152.060000	9.218100
0.003603	2152.270000	9.215700
0.003614	2152.270000	9.215700
0.003626	2152.270000	9.215700
0.003638	2154.630000	9.219200
0.003649	2154.630000	9.219200
0.003661	2154.630000	9.219200
0.003672	2154.630000	9.219200
0.003684	2156.350000	9.220500
0.003696	2156.350000	9.220500
0.003708	2149.270000	9.206200
0.003719	2149.270000	9.206200
0.003730	2149.270000	9.206200
0.003742	2147.050000	9.201100
0.003754	2147.050000	9.201100
0.003765	2147.050000	9.201100
0.003777	2142.400000	9.190700
0.003788	2142.400000	9.190700
0.003800	2142.400000	9.190700
0.003812	2140.040000	9.184200
0.003823	2140.040000	9.184200
0.003835	2140.040000	9.184200
0.003846	2146.910000	9.195000
0.003858	2146.910000	9.195000
0.003869	2146.910000	9.195000
0.003881	2153.560000	9.204900
0.003893	2153.560000	9.204900
0.003904	2153.560000	9.204900
0.003916	2153.560000	9.203300
0.003927	2153.560000	9.203300
0.003939	2153.560000	9.203300
0.003950	2153.920000	9.202500
0.003962	2153.920000	9.202500
0.003973	2153.920000	9.202500
0.003985	2153.920000	9.202500
0.003997	2152.910000	9.199300
0.004011	2152.910000	9.199300
0.004020	2152.840000	9.197300
0.004032	2152.840000	9.197300
0.004043	2152.840000	9.197300
0.004055	2151.340000	9.193700
0.004066	2151.340000	9.193700
0.004078	2151.340000	9.193700
0.004092	2167.360000	9.263200
0.004101	2167.360000	9.263200
0.004112	2167.360000	9.263200
0.004124	2177.660000	9.324900
0.004136	2177.660000	9.324900
0.004148	2177.660000	9.324900
0.004159	2177.660000	9.324900
0.004170	2182.450000	9.350400
0.004183	2182.450000	9.350400
0.004194	2180.450000	9.346400
0.004205	2180.450000	9.346400
0.004217	2180.450000	9.346400
0.004229	2174.440000	9.333900
0.004240	2174.440000	9.333900
0.004252	2174.440000	9.333900
0.004263	2173.010000	9.329300
0.004275	2173.010000	9.329300
0.004286	2173.010000	9.329300
0.004298	2170.800000	9.324200
0.004310	2170.800000	9.324200
0.004357	2170.800000	9.324200
0.004359	2172.940000	9.324500
0.004367	2172.940000	9.324500
0.004379	2172.940000	9.324500
0.004391	2172.940000	9.324500
0.004402	2175.020000	9.326100
0.004414	2175.020000	9.326100
0.004425	2175.020000	9.326100
0.004437	2178.310000	9.328200
0.004449	2178.310000	9.328200
0.004460	2178.310000	9.328200
0.004471	2178.310000	9.328200
0.004483	2175.870000	9.323000
0.004494	2175.870000	9.323000
0.004506	2177.020000	9.323100
0.004517	2177.020000	9.323100
0.004529	2177.020000	9.323100
0.004541	2177.300000	9.321600
0.004553	2177.300000	9.321600
0.004564	2177.300000	9.321600
0.004576	2179.160000	9.322900
0.004588	2179.160000	9.322900
0.004599	2179.160000	9.322900
0.004646	2178.160000	9.319500
0.004648	2174.940000	9.312000
0.004657	2174.940000	9.312000
0.004669	2174.940000	9.312000
0.004680	2163.710000	9.289500
0.004692	2163.710000	9.289500
0.004704	2163.710000	9.289500
0.004715	2155.780000	9.275600
0.004726	2155.780000	9.275600
0.004739	2155.780000	9.275600
0.004750	2150.630000	9.264800
0.004762	2150.630000	9.264800
0.004773	2150.630000	9.264800
0.004785	2147.480000	9.258400
0.004796	2147.480000	9.258400
0.004808	2147.480000	9.258400
0.004819	2140.970000	9.230500
0.004830	2140.970000	9.230500
0.004842	2140.970000	9.230500
0.004855	2168.290000	9.284600
0.004865	2168.290000	9.284600
0.004877	2168.290000	9.284600
0.004890	2151.700000	9.213200
0.004900	2151.700000	9.213200
0.004915	2151.700000	9.213200
0.004923	2139.900000	9.155600
0.004935	2139.900000	9.155600
0.004946	2139.900000	9.155600
0.004960	2139.470000	9.151600
0.005215	2139.470000	9.151600
0.005218	2124.020000	9.097300
0.005226	2124.020000	9.097300
0.005236	2121.800000	9.090900
0.005352	2121.800000	9.090900
0.005354	2120.660000	9.085000
0.005365	2120.660000	9.085000
0.005387	2121.730000	9.085600
0.005389	2121.730000	9.085600
0.005398	2121.730000	9.085600
0.005410	2123.950000	9.089100
0.005421	2123.950000	9.089100
0.005433	2123.950000	9.089100
0.005444	2126.160000	9.090200
0.005456	2126.160000	9.090200
0.005467	2126.160000	9.090200
0.005480	2124.520000	9.085700
0.005491	2124.520000	9.085700
0.005502	2124.520000	9.085700
0.005514	2125.230000	9.087100
0.005526	2125.230000	9.087100
0.005549	2125.230000	9.087100
0.005587	2128.020000	9.088800
0.005590	2128.020000	9.088100
0.005595	2128.020000	9.088100
0.005606	2128.020000	9.088100
0.005653	2128.020000	9.088100
0.005669	2156.130000	9.217000
0.005775	2156.130000	9.217000
0.005778	2156.630000	9.234500
0.005792	2152.200000	9.223900
0.005830	2152.200000	9.223900
0.005844	2152.200000	9.223900
0.005847	2152.200000	9.223900
0.005884	2152.200000	9.223900
0.005887	2152.410000	9.221500
0.005895	2151.700000	9.218000
0.005907	2151.700000	9.218000
0.005919	2151.700000	9.218000
0.005932	2149.480000	9.211900
0.005942	2149.480000	9.211900
0.005955	2149.480000	9.211900
0.005967	2148.270000	9.208900
0.005977	2148.270000	9.208900
0.005989	2148.270000	9.208900
0.006001	2147.980000	9.206000
0.006013	2147.980000	9.206000
0.006024	2147.980000	9.206000
0.006037	2142.970000	9.194100
0.006047	2142.970000	9.194100
0.006095	2142.970000	9.194100
0.006099	2143.760000	9.195600
0.006108	2143.760000	9.192300
0.006118	2143.760000	9.192300
0.006163	2143.760000	9.192300
0.006167	2143.190000	9.190400
0.006174	2140.330000	9.183700
0.006185	2140.330000	9.183700
0.006197	2140.330000	9.183700
0.006211	2141.260000	9.183100
0.006221	2141.260000	9.183100
0.006235	2141.260000	9.183100
0.006261	2149.050000	9.195800
0.006265	2149.050000	9.195800
0.006268	2149.050000	9.195800
0.006290	2151.560000	9.198200
0.006293	2151.560000	9.198200
0.006336	2151.560000	9.198200
0.006341	2149.620000	9.192700
0.006350	2146.190000	9.185100
0.006359	2146.190000	9.185100
0.006371	2146.190000	9.185100
0.006386	2140.900000	9.175600
0.006394	2140.900000	9.175600
0.006409	2140.900000	9.175600
0.006418	2131.960000	9.136600
0.006430	2131.960000	9.136600
0.006441	2131.960000	9.136600
0.006453	2126.160000	9.099900
0.006465	2126.160000	9.099900
0.006477	2126.160000	9.099900
0.006488	2115.010000	9.045800
0.006499	2115.010000	9.045800
0.006512	2115.010000	9.045800
0.006525	2116.010000	9.046100
0.006534	2116.010000	9.046100
0.006546	2116.010000	9.046100
0.006556	2116.010000	9.046100
0.006568	2116.010000	9.046100
0.006580	2136.960000	9.143300
0.006591	2136.960000	9.143300
0.006603	2136.960000	9.143300
0.006617	2136.960000	9.143300
0.006626	2138.540000	9.149100
0.006640	2138.540000	9.149100
0.006650	2138.540000	9.149100
0.006662	2107.570000	9.008400
0.006672	2107.570000	9.008400
0.006684	2107.570000	9.008400
0.006695	2107.570000	9.005100
0.006707	2107.570000	9.005100
0.006719	2107.570000	9.005100
0.006730	2107.210000	9.002800
0.006742	2107.210000	9.002800
0.006754	2107.210000	9.002800
0.006766	2106.070000	8.998700
0.006776	2106.070000	8.998700
0.006788	2106.070000	8.998700
0.006800	2106.280000	8.999000
0.006812	2106.280000	8.999000
0.006823	2106.280000	8.999000
0.006835	2102.490000	8.987900
0.006846	2102.490000	8.987900
0.006857	2102.490000	8.987900
0.006869	2100.990000	8.985000
0.006883	2100.990000	8.985000
0.006893	2093.050000	8.969800
0.006904	2093.050000	8.969800
0.006915	2093.050000	8.969800
0.006927	2093.050000	8.969800
0.006938	2080.030000	8.943900
0.006951	2080.030000	8.943900
0.006962	2080.030000	8.943900
0.006973	2077.100000	8.938000
0.006986	2077.100000	8.938000
0.006997	2077.100000	8.938000
0.007008	2075.090000	8.932800
0.007020	2075.090000	8.932800
0.007031	2075.090000	8.932800
0.007045	2077.380000	8.935600
0.007055	2077.380000	8.935600
0.007066	2077.380000	8.935600
0.007077	2077.740000	8.933600
0.007089	2077.740000	8.933600
0.007100	2077.740000	8.933600
0.007112	2085.540000	8.946600
0.007125	2085.540000	8.946600
0.007136	2085.540000	8.946600
0.007147	2081.750000	8.935200
0.007158	2081.750000	8.935200
0.007173	2081.750000	8.935200
0.007182	2087.250000	8.946300
0.007194	2087.250000	8.946300
0.007207	2087.250000	8.946300
0.007217	2090.400000	8.959200
0.007228	2090.400000	8.959200
0.007239	2090.400000	8.959200
0.007251	2124.590000	9.089600
0.007262	2124.590000	9.089600
0.007320	2124.590000	9.089600
0.007323	2126.660000	9.113100
0.007332	2126.660000	9.113100
0.007343	2126.660000	9.113100
0.007355	2129.170000	9.116000
0.007378	2129.170000	9.116000
0.007381	2129.310000	9.114500
0.007390	2129.310000	9.114500
0.007402	2129.310000	9.114500
0.007413	2129.310000	9.114500
0.007436	2129.240000	9.112900
0.007440	2129.240000	9.112900
0.007450	2129.240000	9.112900
0.007461	2125.950000	9.104600
0.007472	2125.950000	9.104600
0.007483	2125.950000	9.104600
0.007494	2124.950000	9.101500
0.007507	2124.950000	9.101500
0.007519	2124.950000	9.101500
0.007529	2123.450000	9.097100
0.007541	2123.450000	9.097100
0.007552	2123.450000	9.094300
0.007565	2123.450000	9.094300
0.007580	2123.450000	9.094300
0.007590	2123.450000	9.094300
0.007599	2126.310000	9.098100
0.007611	2126.310000	9.098100
0.007622	2126.310000	9.098100
0.007634	2125.310000	9.095000
0.007645	2125.310000	9.095000
0.007656	2125.310000	9.095000
0.007668	2123.020000	9.088500
0.007683	2123.020000	9.088500
0.007695	2123.020000	9.088500
0.007704	2125.380000	9.092000
0.007715	2125.380000	9.092000
0.007728	2121.010000	9.081600
0.007737	2121.010000	9.081600
0.007750	2121.010000	9.081600
0.007762	2121.010000	9.081600
0.007772	2112.070000	9.063900
0.007784	2112.070000	9.063900
0.007795	2112.070000	9.063900
0.007812	2108.140000	9.056200
0.007821	2108.140000	9.056200
0.007832	2108.140000	9.056200
0.007841	2107.500000	9.053600
0.007854	2107.500000	9.053600
0.007866	2101.990000	9.042100
0.007877	2101.990000	9.042100
0.007890	2101.990000	9.042100
0.007899	2101.990000	9.042100
0.007911	2100.060000	9.036200
0.007922	2100.060000	9.036200
0.007934	2100.060000	9.036200
0.007946	2115.360000	9.063200
0.007958	2115.360000	9.063200
0.007969	2115.360000	9.063200
0.007980	2112.140000	9.039400
0.007992	2112.140000	9.039400
0.008004	2112.140000	9.039400
0.008015	2112.140000	9.039400
0.008027	2112.140000	9.039400
0.008038	29.540000	0.367300
0.008050	29.540000	0.367300
0.008061	29.540000	0.367300
0.008073	29.540000	0.367300
0.008085	29.180000	0.359800
0.008097	29.180000	0.359800
0.008109	29.180000	0.359800
0.008120	29.110000	0.360000
0.008131	29.110000	0.360000
0.008143	29.110000	0.360000
0.008154	44.480000	0.503200
0.008166	44.480000	0.503200
0.008177	44.480000	0.503200
0.008189	44.200000	0.508300
0.008200	44.200000	0.508300
0.008212	44.200000	0.508300
0.008225	27.030000	0.334900
0.008237	27.030000	0.334900
0.008248	27.030000	0.334900
0.008259	26.240000	0.322000
0.008271	26.240000	0.322000
0.008282	26.240000	0.322000
0.008294	26.240000	0.322800
0.008306	26.240000	0.322800
0.008320	26.240000	0.322800
0.008330	26.170000	0.314900
0.008340	26.170000	0.314900
0.008354	26.170000	0.314900
0.008363	26.170000	0.316300
0.008374	26.170000	0.316300
0.008386	26.170000	0.316300
0.008397	26.170000	0.316300
0.008409	26.170000	0.316300
0.008421	26.170000	0.316300
0.008432	26.170000	0.317000
0.008444	26.170000	0.317000
0.008455	26.170000	0.317000
0.008467	26.170000	0.319600
0.008479	26.170000	0.319600
0.008492	26.170000	0.319600
0.008503	26.170000	0.320200
0.008514	26.170000	0.320200
0.008525	26.100000	0.320100
0.008536	26.100000	0.320100
0.008549	26.100000	0.320100
0.008562	26.100000	0.321300
0.008572	26.100000	0.321300
0.008585	26.100000	0.321300
0.008594	26.100000	0.321300
0.008606	26.100000	0.322100
0.008618	26.100000	0.322100
0.008629	26.100000	0.322100
0.008641	26.100000	0.320800
0.008654	26.100000	0.320800
0.008664	26.100000	0.320800
0.008676	26.100000	0.320000
0.008688	26.100000	0.320000
0.008698	26.100000	0.323700
0.008711	26.100000	0.323700
0.008722	26.100000	0.323700
0.008733	26.100000	0.323700
0.008745	26.100000	0.323700
0.008757	26.100000	0.323700
0.008768	26.100000	0.323700
0.008779	41.190000	0.466700
0.008791	41.190000	0.466700
0.008803	41.190000	0.466700
0.008817	33.970000	0.372600
0.008830	33.970000	0.372600
0.008838	31.970000	0.372600
0.008849	31.970000	0.347200
0.008872	31.970000	0.347200
0.008874	32.610000	0.357800
0.008884	32.610000	0.357800
0.008895	32.610000	0.357800
0.008907	32.610000	0.357800
0.008919	31.610000	0.346500
0.008930	31.610000	0.346500
0.008942	31.610000	0.346500
0.008954	30.390000	0.352500
0.008965	30.390000	0.352500
0.008977	30.390000	0.352500
0.008988	26.100000	0.324900
0.009000	26.100000	0.324900
0.009011	26.030000	0.322200
0.009023	26.030000	0.322200
0.009035	26.030000	0.322200
0.009046	26.030000	0.322200
0.009058	26.170000	0.326600
0.009069	26.170000	0.326600
0.009081	26.170000	0.326600
0.009092	25.960000	0.321400
0.009104	25.960000	0.321400
0.009116	25.960000	0.321400
0.009127	25.960000	0.321100
0.009139	25.960000	0.321100
0.009151	25.960000	0.321100
0.009162	25.960000	0.323400
0.009174	25.960000	0.323400
0.009186	25.960000	0.320100
0.009197	25.960000	0.320100
0.009209	25.960000	0.320100
0.009220	25.960000	0.320100
0.009232	25.960000	0.322300
0.009244	25.960000	0.322300
0.009255	25.960000	0.322300
0.009267	25.960000	0.319500
0.009278	25.960000	0.319500
0.009290	25.960000	0.319500
0.009302	25.960000	0.319600
0.009314	25.960000	0.319600
0.009324	25.960000	0.319600
0.009336	25.890000	0.318100
0.009348	25.890000	0.318100
0.009359	25.890000	0.318500
0.009371	25.890000	0.318500
0.009387	25.890000	0.318500
0.009394	25.890000	0.318500
0.009405	25.890000	0.320300
0.009417	25.890000	0.320300
0.009429	25.890000	0.320300
0.009444	25.820000	0.316700
0.009455	25.820000	0.316700
0.009465	25.820000	0.316700
0.009475	25.820000	0.316700
0.009487	25.820000	0.316700
0.009499	25.890000	0.317400
0.009509	25.890000	0.317400
0.009522	25.890000	0.317400
0.009533	25.820000	0.315900
0.009545	25.820000	0.315900
0.009557	25.820000	0.315900
0.009569	25.820000	0.315900
0.009597	25.890000	0.315800
0.009617	25.960000	0.315700
0.009632	25.960000	0.315700
0.009636	25.960000	0.315700
0.009638	25.960000	0.315700
0.009650	25.890000	0.316600
0.009660	25.890000	0.316600
0.009672	25.960000	0.321100
0.009684	25.960000	0.321100
0.009699	25.960000	0.321100
0.009707	25.960000	0.321100
0.009718	25.960000	0.320200
0.009730	25.960000	0.320200
0.009741	25.960000	0.320200
0.009753	26.030000	0.324900
0.009767	26.030000	0.324900
0.009777	26.030000	0.324900
0.009788	60.000000	0.519800
0.009799	60.000000	0.519800
0.009814	60.000000	0.519800
0.009825	59.790000	0.524900
0.009837	59.790000	0.524900
0.009846	63.300000	0.594200
0.009858	63.300000	0.594200
0.009870	63.300000	0.594200
0.009882	63.300000	0.594200
0.009895	63.800000	0.595300
0.009904	63.800000	0.595300
0.009916	63.800000	0.595300
0.009929	57.430000	0.574600
0.009939	57.430000	0.574600
0.009951	57.430000	0.574600
0.009963	66.660000	0.669000
0.009973	66.660000	0.669000
0.009986	58.070000	0.669000
0.009997	58.070000	0.583900
0.010008	58.070000	0.583900
0.010019	57.360000	0.580500
0.010031	57.360000	0.580500
0.010042	57.360000	0.580500
0.010054	57.360000	0.580500
0.010065	52.420000	0.575000
0.010077	52.420000	0.575000
0.010089	52.420000	0.575000
0.010100	46.130000	0.561600
0.010112	46.130000	0.561600
0.010125	46.130000	0.561600
0.010135	46.200000	0.561600
0.010148	46.200000	0.561600
0.010159	46.130000	0.568200
0.010170	46.130000	0.568200
0.010182	46.130000	0.568200
0.010196	46.130000	0.568200
0.010206	46.130000	0.568200
0.010217	46.130000	0.568200
0.010228	46.130000	0.568200
0.010240	46.130000	0.567100
0.010251	46.130000	0.567100
0.010263	46.130000	0.567100
0.010275	45.840000	0.567300
0.010286	45.840000	0.567300
0.010298	45.840000	0.567300
0.010309	45.990000	0.569500
0.010321	45.990000	0.569500
0.010332	45.840000	0.567600
0.010344	45.840000	0.567600
0.010356	45.840000	0.567600
0.010367	45.840000	0.567600
0.010379	45.910000	0.566500
0.010391	45.910000	0.566500
0.010402	45.910000	0.566500
0.010414	45.910000	0.562000
0.010426	45.910000	0.562000
0.010437	45.910000	0.562000
0.010449	45.840000	0.568000
0.010460	45.840000	0.568000
0.010472	45.840000	0.568000
0.010483	45.910000	0.569200
0.010495	45.910000	0.569200
0.010506	46.630000	0.538300
0.010518	46.630000	0.538300
0.010530	46.630000	0.538300
0.010551	44.910000	0.510800
0.010553	44.910000	0.510800
0.010564	44.910000	0.510800
0.010576	44.910000	0.510800
0.010588	31.320000	0.393600
0.010599	31.320000	0.393600
0.010615	31.320000	0.393600
0.010626	29.110000	0.361400
0.010634	29.110000	0.361400
0.010646	28.820000	0.358700
0.010657	28.820000	0.358700
0.010669	28.820000	0.358700
0.010680	32.110000	0.386300
0.010692	32.110000	0.386300
0.010703	32.110000	0.386300
0.010715	32.110000	0.386300
0.010727	43.840000	0.500500
0.010738	43.840000	0.500500
0.010750	43.840000	0.500500
0.010762	42.980000	0.503300
0.010773	42.980000	0.503300
0.010785	42.980000	0.503300
0.010797	26.100000	0.326800
0.010809	26.100000	0.326800
0.010820	25.960000	0.327100
0.010832	25.960000	0.327100
0.010843	25.960000	0.327100
0.010855	25.960000	0.323600
0.010866	25.960000	0.323600
0.010878	25.960000	0.323600
0.010889	25.960000	0.323600
0.010902	25.890000	0.321200
0.010913	25.890000	0.321200
0.010924	25.890000	0.321200
0.010936	25.890000	0.321200
0.010948	25.890000	0.321200
0.010959	25.890000	0.321200
0.010975	25.960000	0.321400
0.010983	25.960000	0.321400
0.010994	26.030000	0.323200
0.011006	26.030000	0.323200
0.011018	26.030000	0.323200
0.011029	26.030000	0.324300
0.011040	26.030000	0.324300
0.011052	26.030000	0.324300
0.011064	26.030000	0.324300
0.011075	26.100000	0.325900
0.011086	26.100000	0.325900
0.011098	26.100000	0.325900
0.011110	26.030000	0.319900
0.011121	26.030000	0.319900
0.011133	26.030000	0.321400
0.011144	26.030000	0.321400
0.011156	26.030000	0.321400
0.011167	25.960000	0.322100
0.011179	25.960000	0.322100
0.011191	25.960000	0.322100
0.011202	26.030000	0.322100
0.011214	26.030000	0.322100
0.011238	26.030000	0.322100
0.011250	25.960000	0.322400
0.011254	25.960000	0.322400
0.011282	25.960000	0.322400
0.011300	25.960000	0.322200
0.011303	25.960000	0.321300
0.011307	25.960000	0.321300
0.011326	25.960000	0.321300
0.011339	25.960000	0.321300
0.011344	42.910000	0.491100
0.011353	42.910000	0.491100
0.011365	42.910000	0.491100
0.011376	42.910000	0.491100
0.011387	44.270000	0.553800
0.011399	44.270000	0.553800
0.011411	44.270000	0.553800
0.011422	46.270000	0.574400
0.011434	46.270000	0.574400
0.011445	46.270000	0.574400
0.011457	46.420000	0.573300
0.011469	46.420000	0.573300
0.011481	46.420000	0.572100
0.011492	46.420000	0.572100
0.011504	46.420000	0.572100
0.011515	46.340000	0.571000
0.011527	46.340000	0.571000
0.011539	46.340000	0.571000
0.011562	46.340000	0.571100
0.011564	46.340000	0.571100
0.011574	46.340000	0.571100
0.011585	46.340000	0.571100
0.011597	46.340000	0.568200
0.011608	46.340000	0.568200
0.011620	46.490000	0.571100
0.011632	46.490000	0.571100
0.011648	46.490000	0.571100
0.011655	46.490000	0.571100
0.011666	46.490000	0.571100
0.011678	46.490000	0.571100
0.011690	46.270000	0.573900
0.011701	46.270000	0.573900
0.011713	46.270000	0.573900
0.011724	46.270000	0.573900
0.011736	46.340000	0.579800
0.011748	46.340000	0.579800
0.011759	46.340000	0.579800
0.011771	46.270000	0.576300
0.011782	46.270000	0.576300
0.011793	46.340000	0.575200
0.011805	46.340000	0.575200
0.011817	46.340000	0.575200
0.011837	46.340000	0.575600
0.011840	46.340000	0.575600
0.011852	46.340000	0.575600
0.011863	46.340000	0.573800
0.011875	46.340000	0.573800
0.011886	46.340000	0.573800
0.011898	46.340000	0.573800
0.011910	46.340000	0.574300
0.011922	46.340000	0.574300
0.011933	46.340000	0.574300
0.011944	46.340000	0.573900
0.011956	46.340000	0.573900
0.011968	46.420000	0.572000
0.011980	46.420000	0.572000
0.011991	46.420000	0.572000
0.012003	46.340000	0.573600
0.012018	46.340000	0.573600
0.012032	46.340000	0.573600
0.012045	46.340000	0.571700
0.012049	46.340000	0.571700
0.012061	46.340000	0.571700
0.012072	46.340000	0.571700
0.012083	47.200000	0.540900
0.012095	47.200000	0.540900
0.012107	49.990000	0.570500
0.012119	49.990000	0.570500
0.012130	49.990000	0.570500
0.012141	31.970000	0.400600
0.012153	31.970000	0.400600
0.012165	31.970000	0.400600
0.012178	29.460000	0.370300
0.012188	29.460000	0.370300
0.012200	29.460000	0.370300
0.012211	29.460000	0.370300
0.012224	29.320000	0.366100
0.012234	29.320000	0.366100
0.012246	29.320000	0.366100
0.012258	31.970000	0.383600
0.012269	31.970000	0.383600
0.012280	43.550000	0.495700
0.012293	43.550000	0.495700
0.012304	43.550000	0.495700
0.012315	30.540000	0.384000
0.012326	30.540000	0.384000
0.012338	30.540000	0.384000
0.012350	26.320000	0.326100
0.012362	26.320000	0.326100
0.012373	26.320000	0.326100
0.012385	26.320000	0.326100
0.012396	26.320000	0.326100
0.012408	26.320000	0.326100
0.012419	26.320000	0.326100
0.012431	26.030000	0.322600
0.012442	26.030000	0.322600
0.012454	26.030000	0.323300
0.012466	26.030000	0.323300
0.012477	26.030000	0.323300
0.012489	26.030000	0.319200
0.012506	26.030000	0.319200
0.012513	26.030000	0.319200
0.012525	25.960000	0.319100
0.012535	25.960000	0.319100
0.012547	25.960000	0.319100
0.012559	25.960000	0.319100
0.012571	25.960000	0.320100
0.012582	25.960000	0.320100
0.012594	25.960000	0.320600
0.012605	25.960000	0.320600
0.012617	25.960000	0.320600
0.012628	25.960000	0.320500
0.012640	25.960000	0.320500
0.012652	25.960000	0.320500
0.012663	25.960000	0.321700
0.012676	25.960000	0.321700
0.012688	25.960000	0.321700
0.012727	25.960000	0.321400
0.012732	25.960000	0.321400
0.012736	25.960000	0.321600
0.012758	25.960000	0.321600
0.012761	25.960000	0.322100
0.012768	25.960000	0.322100
0.012780	25.960000	0.322100
0.012795	25.960000	0.322100
0.012802	25.890000	0.319000
0.012814	25.890000	0.319000
0.012826	25.890000	0.319000
0.012837	25.890000	0.320800
0.012849	25.890000	0.320800
0.012862	25.890000	0.320800
0.012872	25.890000	0.316200
0.012884	25.890000	0.316200
0.012896	25.890000	0.316200
0.012907	25.890000	0.316200
0.012918	48.850000	0.549000
0.012930	48.850000	0.549000
0.012942	44.050000	0.544500
0.012953	44.050000	0.544500
0.012965	44.050000	0.544500
0.012977	46.200000	0.568500
0.012988	46.200000	0.568500
0.013000	46.200000	0.568500
0.013011	46.490000	0.573900
0.013023	46.490000	0.573900
0.013034	46.490000	0.573900
0.013046	46.490000	0.573900
0.013057	46.630000	0.572300
0.013069	46.630000	0.572300
0.013080	46.630000	0.572800
0.013092	46.630000	0.572800
0.013104	46.630000	0.572800
0.013116	46.630000	0.572800
0.013127	46.630000	0.572800
0.013139	46.630000	0.572800
0.013150	46.560000	0.571300
0.013162	46.560000	0.571300
0.013174	46.560000	0.571300
0.013185	46.420000	0.569000
0.013197	46.420000	0.569000
0.013208	46.420000	0.569000
0.013220	46.420000	0.569000
0.013232	46.490000	0.576600
0.013243	46.490000	0.576600
0.013254	46.420000	0.571300
0.013266	46.420000	0.571300
0.013278	46.420000	0.571300
0.013289	46.420000	0.570200
0.013301	46.420000	0.570200
0.013313	46.420000	0.570200
0.013324	46.490000	0.570800
0.013335	46.490000	0.570800
0.013347	46.490000	0.570800
0.013359	46.490000	0.572100
0.013371	46.490000	0.572100
0.013382	46.490000	0.572100
0.013393	46.490000	0.572100
0.013405	46.560000	0.573800
0.013417	46.560000	0.573800
0.013428	46.630000	0.572700
0.013441	46.630000	0.572700
0.013451	46.630000	0.572700
0.013463	46.490000	0.571300
0.013475	46.490000	0.571300
0.013486	46.490000	0.571300
0.013498	46.490000	0.568800
0.013509	46.490000	0.568800
0.013521	46.490000	0.568800
0.013532	46.490000	0.568800
0.013544	46.490000	0.569200
0.013555	46.490000	0.569200
0.013567	46.490000	0.568400
0.013579	46.490000	0.568400
0.013591	46.490000	0.568400
0.013602	46.490000	0.568900
0.013613	46.490000	0.568900
0.013625	46.490000	0.568900
0.013637	43.550000	0.493500
0.013648	43.550000	0.493500
0.013660	43.550000	0.493500
0.013671	50.130000	0.565100
0.013683	50.130000	0.565100
0.013694	50.130000	0.565100
0.013707	50.130000	0.565100
0.013718	30.040000	0.375600
0.013729	30.040000	0.375600
0.013741	29.320000	0.367600
0.013753	29.320000	0.367600
0.013765	29.320000	0.367600
0.013776	29.320000	0.365600
0.013788	29.320000	0.365600
0.013799	29.320000	0.365600
0.013810	41.050000	0.468700
0.013822	41.050000	0.468700
0.013834	41.050000	0.468700
0.013845	41.050000	0.468700
0.013857	41.050000	0.468700
0.013868	41.050000	0.468700
0.013880	41.050000	0.468700
0.013891	31.040000	0.391000
0.013903	31.040000	0.391000
0.013915	26.170000	0.309400
0.013927	26.170000	0.309400
0.013938	26.170000	0.309400
0.013949	26.100000	0.307700
0.013961	26.100000	0.307700
0.013973	26.100000	0.307700
0.013985	26.100000	0.307900
0.013996	26.100000	0.307900
0.014008	26.100000	0.307900
0.014019	26.030000	0.313800
0.014030	26.030000	0.313800
0.014042	26.030000	0.313800
0.014054	26.030000	0.313800
0.014066	26.030000	0.322700
0.014078	26.030000	0.322700
0.014088	26.030000	0.324600
0.014100	26.030000	0.324600
0.014112	26.030000	0.324600
0.014124	26.030000	0.320100
0.014136	26.030000	0.320100
0.014147	26.030000	0.320100
0.014158	26.030000	0.323400
0.014170	26.030000	0.323400
0.014183	26.030000	0.323400
0.014194	25.960000	0.322400
0.014204	25.960000	0.322400
0.014216	25.960000	0.322400
0.014228	25.960000	0.315100
0.014239	25.960000	0.315100
0.014251	25.960000	0.315100
0.014263	25.960000	0.315900
0.014274	25.960000	0.315900
0.014285	25.960000	0.315900
0.014297	25.960000	0.314000
0.014309	25.960000	0.314000
0.014320	25.960000	0.314000
0.014332	26.030000	0.314900
0.014343	26.030000	0.314900
0.014355	26.030000	0.314900
0.014367	26.030000	0.314900
0.014378	25.960000	0.315300
0.014390	25.960000	0.315300
0.014401	25.890000	0.317600
0.014413	25.890000	0.317600
0.014425	25.890000	0.317600
0.014436	30.320000	0.349700
0.014447	30.320000	0.349700
0.014459	30.320000	0.349700
0.014471	49.350000	0.556500
0.014482	49.350000	0.556500
0.014494	49.350000	0.556500
0.014505	43.840000	0.536700
0.014517	43.840000	0.536700
0.014529	43.840000	0.536700
0.014540	43.840000	0.536700
0.014551	46.270000	0.563700
0.014564	46.270000	0.563700
0.014575	46.270000	0.563700
0.014586	46.270000	0.563700
0.014598	46.270000	0.563700
0.014609	46.340000	0.564200
0.014621	46.340000	0.564200
0.014633	46.340000	0.564200
0.014645	46.340000	0.565200
0.014656	46.340000	0.565200
0.014668	46.340000	0.565200
0.014679	46.200000	0.562300
0.014691	46.200000	0.562300
0.014702	46.200000	0.562300
0.014714	46.200000	0.564000
0.014730	46.200000	0.564000
0.014737	46.200000	0.564000
0.014749	46.270000	0.564700
0.014760	46.270000	0.564700
0.014778	46.270000	0.564700
0.014783	46.200000	0.565600
0.014795	46.200000	0.565600
0.014807	46.200000	0.565600
0.014818	46.270000	0.565500
0.014830	46.270000	0.565500
0.014841	46.270000	0.565500
0.014853	46.200000	0.565000
0.014865	46.200000	0.565000
0.014876	46.200000	0.565000
0.014888	46.200000	0.566900
0.014899	46.200000	0.566900
0.014914	46.200000	0.566900
0.014922	46.270000	0.562900
0.014934	46.270000	0.562900
0.014945	46.270000	0.562900
0.014957	46.200000	0.563200
0.014968	46.200000	0.563200
0.014981	46.200000	0.563200
0.014992	46.340000	0.566100
0.015004	46.340000	0.566100
0.015015	46.340000	0.566100
0.015026	46.340000	0.566100
0.015039	46.200000	0.565500
0.015053	46.270000	0.567100
0.015065	46.270000	0.567100
0.015073	46.270000	0.567100
0.015084	46.270000	0.567100
0.015097	46.270000	0.565400
0.015108	46.270000	0.565400
0.015120	46.270000	0.565400
0.015131	46.490000	0.568900
0.015142	46.490000	0.568900
0.015154	46.490000	0.568900
0.015166	46.490000	0.573100
0.015177	46.490000	0.573100
0.015189	46.490000	0.573100
0.015200	46.490000	0.573100
0.015212	43.480000	0.493500
0.015224	43.480000	0.493500
0.015235	43.200000	0.507400
0.015247	43.200000	0.507400
0.015258	43.200000	0.507400
0.015270	29.960000	0.372600
0.015282	29.960000	0.372600
0.015293	29.960000	0.372600
0.015305	29.960000	0.372600
0.015316	29.960000	0.372600
0.015328	29.960000	0.372600
0.015339	29.250000	0.365100
0.015350	29.250000	0.365100
0.015362	29.250000	0.365100
0.015374	40.840000	0.462700
0.015385	40.840000	0.462700
0.015397	40.840000	0.462700
0.015410	40.120000	0.456900
0.015420	40.120000	0.456900
0.015432	40.120000	0.456900
0.015446	26.890000	0.332400
0.015456	26.890000	0.332400
0.015468	26.890000	0.332400
0.015479	26.240000	0.325300
0.015490	26.240000	0.325300
0.015501	26.240000	0.325300
0.015513	26.170000	0.321900
0.015525	26.170000	0.321900
0.015536	26.170000	0.321900
0.015548	26.100000	0.320100
0.015562	26.100000	0.320100
0.015573	26.100000	0.320100
0.015585	26.100000	0.318300
0.015629	26.100000	0.318300
0.015642	26.100000	0.319500
0.015645	26.100000	0.319500
0.015652	26.100000	0.318000
0.015663	26.100000	0.318000
0.015675	26.100000	0.318000
0.015687	26.100000	0.318000
0.015701	26.030000	0.318900
0.015746	26.030000	0.318900
0.015748	26.030000	0.318900
0.015792	25.960000	0.317300
0.015794	26.030000	0.319500
0.015802	26.030000	0.319500
0.015816	26.030000	0.319500
0.015826	26.240000	0.324100
0.015837	26.240000	0.324100
0.015849	26.240000	0.323100
0.015861	26.240000	0.323100
0.015873	26.240000	0.323100
0.015925	26.240000	0.323100
0.015926	26.170000	0.320300
0.015930	26.170000	0.320300
0.015941	26.170000	0.320300
0.015953	26.170000	0.320300
0.015965	26.170000	0.324800
0.015976	26.170000	0.324800
0.015990	26.170000	0.324800
0.016000	31.970000	0.367700
0.016012	31.970000	0.367700
0.016023	31.970000	0.367700
0.016034	31.970000	0.367700
0.016046	31.970000	0.367700
0.016057	31.970000	0.367700
0.016069	46.200000	0.561800
0.016080	46.200000	0.561800
0.016092	46.200000	0.561800
0.016104	46.630000	0.568500
0.016115	46.630000	0.568500
0.016127	46.630000	0.568500
0.016139	46.700000	0.571800
0.016151	46.700000	0.571800
0.016162	46.700000	0.571800
0.016174	46.700000	0.573200
0.016185	46.700000	0.573200
0.016196	46.700000	0.573200
0.016208	46.770000	0.575800
0.016220	46.770000	0.575800
0.016231	46.770000	0.575800
0.016242	46.700000	0.572700
0.016254	46.700000	0.572700
0.016266	46.700000	0.572700
0.016277	46.700000	0.574500
0.016290	46.700000	0.574500
0.016300	46.700000	0.574500
0.016312	46.770000	0.573800
0.016324	46.770000	0.573800
0.016335	46.770000	0.573800
0.016347	46.770000	0.573800
0.016359	46.770000	0.572100
0.016370	46.770000	0.572100
0.016381	46.630000	0.571100
0.016393	46.630000	0.571100
0.016405	46.630000	0.571100
0.016416	46.630000	0.573800
0.016428	46.630000	0.573800
0.016439	46.630000	0.573800
0.016451	46.630000	0.572600
0.016462	46.630000	0.572600
0.016474	46.630000	0.572600
0.016486	46.700000	0.571300
0.016498	46.700000	0.571300
0.016509	46.700000	0.571300
0.016521	46.770000	0.570700
0.016533	46.770000	0.570700
0.016543	46.770000	0.570700
0.016555	46.770000	0.569100
0.016568	46.770000	0.569100
0.016579	46.770000	0.569100
0.016590	46.700000	0.571600
0.016601	46.700000	0.571600
0.016613	46.700000	0.571600
0.016625	46.770000	0.569300
0.016636	46.770000	0.569300
0.016648	46.770000	0.569300
0.016660	46.700000	0.570500
0.016671	46.700000	0.570500
0.016683	46.700000	0.570500
0.016706	46.770000	0.571600
0.016707	46.770000	0.571600
0.016717	46.770000	0.571600
0.016729	47.490000	0.551700
0.016740	47.490000	0.551700
0.016752	47.490000	0.551700
0.016763	47.490000	0.551700
0.016775	47.490000	0.551700
0.016787	47.490000	0.551700
0.016798	43.630000	0.507400
0.016810	43.630000	0.507400
0.016821	29.750000	0.507400
0.016834	29.750000	0.368700
0.016844	29.750000	0.368700
0.016856	29.750000	0.368700
0.016868	29.610000	0.368600
0.016879	29.610000	0.368600
0.016891	29.610000	0.368600
0.016903	29.540000	0.365300
0.016914	29.540000	0.365300
0.016926	29.540000	0.365300
0.016937	45.770000	0.516000
0.016949	45.770000	0.516000
0.016960	45.770000	0.516000
0.016972	45.560000	0.513300
0.016984	45.560000	0.513300
0.016995	45.560000	0.513300
0.017007	27.170000	0.332400
0.017019	27.170000	0.332400
0.017030	27.170000	0.332400
0.017053	26.320000	0.322600
0.017055	26.320000	0.322600
0.017065	26.320000	0.322600
0.017076	26.320000	0.324300
0.017123	26.320000	0.324300
0.017125	26.320000	0.323600
0.017134	26.320000	0.323600
0.017146	26.240000	0.325200
0.017157	26.240000	0.325200
0.017169	26.240000	0.325200
0.017180	26.240000	0.326300
0.017192	26.240000	0.326300
0.017204	26.240000	0.326300
0.017215	26.100000	0.322500
0.017227	26.100000	0.322500
0.017238	26.100000	0.322500
0.017250	26.100000	0.322100
0.017261	26.100000	0.322100
0.017273	26.100000	0.322100
0.017285	26.240000	0.325200
0.017296	26.240000	0.325200
0.017309	26.240000	0.325200
0.017319	26.030000	0.313800
0.017332	26.030000	0.313800
0.017343	26.030000	0.313800
0.017355	25.960000	0.314500
0.017365	25.960000	0.314500
0.017378	25.960000	0.314500
0.017390	26.030000	0.316300
0.017401	26.030000	0.316300
0.017413	26.030000	0.316300
0.017424	25.960000	0.313300
0.017435	25.960000	0.313300
0.017447	25.960000	0.313300
0.017458	26.030000	0.315000
0.017470	26.030000	0.315000
0.017482	26.030000	0.315200
0.017493	26.030000	0.315200
0.017504	26.030000	0.315200
0.017516	26.030000	0.315200
0.017528	26.030000	0.319100
0.017539	26.030000	0.319100
0.017551	26.030000	0.319100
0.017563	26.100000	0.323100
0.017579	26.100000	0.323100
0.017586	26.100000	0.323100
0.017597	26.030000	0.321500
0.017609	26.030000	0.321500
0.017620	26.030000	0.321500
0.017632	26.030000	0.319500
0.017644	26.030000	0.319500
0.017655	26.030000	0.319500
0.017667	26.100000	0.322400
0.017678	26.100000	0.322400
0.017690	26.100000	0.322400
0.017702	26.100000	0.317500
0.017713	26.100000	0.317500
0.017725	26.100000	0.317500
0.017737	26.100000	0.319900
0.017748	26.100000	0.319900
0.017760	26.100000	0.319900
0.017771	26.030000	0.321400
0.017783	26.030000	0.321400
0.017794	26.030000	0.321400
0.017806	26.030000	0.322800
0.017818	26.030000	0.322800
0.017829	26.030000	0.322800
0.017841	26.100000	0.324400
0.017852	26.100000	0.324400
0.017865	26.100000	0.324400
0.017875	26.170000	0.323100
0.017887	26.170000	0.323100
0.017899	26.170000	0.323100
0.017911	26.240000	0.324000
0.017922	26.240000	0.324000
0.017936	26.240000	0.324000
0.017946	26.240000	0.321800
0.017957	26.240000	0.321800
0.017968	26.240000	0.321700
0.017980	26.240000	0.321700
0.017991	26.240000	0.321700
0.018003	26.240000	0.321700
0.018014	26.240000	0.323600
0.018026	26.240000	0.323600
0.018037	26.240000	0.323600
0.018049	2131.960000	9.124000
0.018061	2131.960000	9.124000
0.018072	2131.960000	9.124000
0.018084	2137.110000	9.144600
0.018096	2137.110000	9.144600
0.018107	2137.110000	9.144600
0.018118	2160.930000	9.253800
0.018131	2160.930000	9.253800
0.018142	2161.860000	9.258800
0.018154	2161.860000	9.258800
0.018165	2161.860000	9.258800
0.018177	2161.860000	9.258800
0.018188	2160.500000	9.255800
0.018199	2160.500000	9.255800
0.018212	2160.500000	9.255800
0.018223	2159.710000	9.253400
0.018234	2159.710000	9.253400
0.018246	2159.710000	9.253400
0.018257	2151.770000	9.239300
0.018283	2151.770000	9.239300
0.018295	2145.050000	9.226900
0.018302	2145.050000	9.226900
0.018316	2145.050000	9.226900
0.018324	2140.540000	9.218000
0.018332	2140.540000	9.218000
0.018349	2140.540000	9.218000
0.018350	2140.540000	9.218000
0.018361	2136.030000	9.208700
0.018373	2136.030000	9.208700
0.018385	2136.030000	9.208700
0.018396	2148.620000	9.227300
0.018408	2148.620000	9.227300
0.018419	2148.620000	9.227300
0.018431	2146.550000	9.222800
0.018442	2146.550000	9.222800
0.018454	2145.050000	9.218500
0.018466	2145.050000	9.218500
0.018477	2145.050000	9.218500
0.018489	2145.050000	9.218500
0.018500	2136.540000	9.203800
0.018512	2136.540000	9.203800
0.018524	2136.540000	9.203800
0.018535	2135.530000	9.201500
0.018547	2135.530000	9.201500
0.018559	2135.530000	9.201500
0.018570	2136.390000	9.201100
0.018582	2136.390000	9.201100
0.018593	2136.390000	9.201100
0.018604	2137.250000	9.201100
0.018616	2137.250000	9.201100
0.018628	2134.030000	9.193900
0.018639	2134.030000	9.193900
0.018651	2134.030000	9.193900
0.018662	2134.030000	9.193900
0.018674	2140.250000	9.202000
0.018686	2140.250000	9.202000
0.018698	2140.250000	9.202000
0.018709	2149.980000	9.215900
0.018720	2149.980000	9.215900
0.018732	2149.980000	9.215900
0.018744	2150.050000	9.214900
0.018755	2150.050000	9.214900
0.018767	2146.190000	9.214900
0.018779	2146.190000	9.206100
0.018790	2146.190000	9.206100
0.018802	2146.190000	9.206100
0.018813	2144.900000	9.201900
0.018825	2144.900000	9.201900
0.018836	2144.900000	9.201900
0.018848	2146.260000	9.203700
0.018860	2146.260000	9.203700
0.018871	2146.260000	9.203700
0.018884	2146.190000	9.201200
0.018895	2146.190000	9.201200
0.018906	2146.190000	9.201200
0.018918	2143.690000	9.196400
0.018929	2143.690000	9.196400
0.018942	2142.540000	9.192400
0.018953	2142.540000	9.192400
0.018964	2142.540000	9.192400
0.018975	2142.540000	9.192400
0.018987	2141.470000	9.189400
0.018999	2141.470000	9.189400
0.019010	2141.470000	9.189400
0.019022	2142.830000	9.190900
0.019034	2142.830000	9.190900
0.019047	2142.830000	9.190900
0.019057	2141.760000	9.187200
0.019068	2141.760000	9.187200
0.019080	2141.760000	9.187200
0.019091	2140.400000	9.183800
0.019104	2140.400000	9.183800
0.019116	2138.750000	9.180400
0.019128	2138.750000	9.180400
0.019142	2138.750000	9.180400
0.019149	2138.750000	9.180400
0.019160	2135.890000	9.172400
0.019172	2135.890000	9.172400
0.019184	2135.890000	9.172400
0.019195	2135.250000	9.171100
0.019207	2135.250000	9.171100
0.019218	2135.250000	9.171100
0.019230	2133.600000	9.168000
0.019241	2133.600000	9.168000
0.019253	2131.670000	9.160900
0.019265	2131.670000	9.160900
0.019277	2131.670000	9.160900
0.019288	2131.670000	9.160900
0.019300	2131.240000	9.159100
0.019311	2131.240000	9.159100
0.019323	2131.240000	9.159100
0.019334	2130.380000	9.157500
0.019346	2130.380000	9.157500
0.019358	2130.380000	9.157500
0.019369	2129.880000	9.155100
0.019381	2129.880000	9.155100
0.019394	2129.880000	9.155100
0.019404	2125.310000	9.145200
0.019416	2125.310000	9.145200
0.019427	2125.160000	9.142500
0.019438	2125.160000	9.142500
0.019450	2125.160000	9.142500
0.019462	2125.160000	9.142500
0.019473	2088.900000	8.973100
0.019485	2088.900000	8.973100
0.019497	2088.900000	8.973100
0.019508	2099.270000	9.012600
0.019520	2099.270000	9.012600
0.019531	2099.270000	9.012600
0.019543	2091.760000	8.969100
0.019554	2091.760000	8.969100
0.019566	2091.760000	8.969100
0.019578	2088.330000	8.959000
0.019589	2088.330000	8.959000
0.019601	2106.640000	9.038700
0.019612	2106.640000	9.038700
0.019624	2106.640000	9.038700
0.019635	2106.640000	9.038700
0.019647	2108.000000	9.043900
0.019659	2108.000000	9.043900
0.019670	2108.000000	9.043900
0.019682	2109.140000	9.046100
0.019693	2109.140000	9.046100
0.019705	2109.140000	9.046100
0.019717	2106.350000	9.038900
0.019728	2106.350000	9.038900
0.019739	1366.780000	7.232400
0.019751	1366.780000	7.232400
0.019763	1366.780000	7.232400
0.019774	1366.780000	7.232400
0.019786	53.570000	0.630800
0.019798	53.570000	0.630800
0.019809	53.570000	0.630800
0.019823	53.500000	0.638600
0.019832	53.500000	0.638600
0.019844	53.500000	0.638600
0.019856	53.570000	0.642400
0.019867	53.570000	0.642400
0.019879	53.570000	0.642400
0.019890	53.570000	0.639500
0.019902	53.570000	0.639500
0.019914	53.570000	0.639500
0.019925	53.570000	0.640300
0.019936	53.570000	0.640300
0.019948	53.570000	0.638500
0.019960	53.570000	0.638500
0.019971	53.570000	0.638500
0.019982	53.570000	0.638500
0.019994	53.570000	0.643400
0.020006	53.570000	0.643400
0.020017	53.570000	0.643400
0.020029	53.570000	0.645000
0.020041	53.570000	0.645000
0.020052	53.570000	0.645000
0.020065	53.570000	0.644000
0.020076	53.570000	0.644000
0.020087	53.500000	0.644000
0.020098	53.500000	0.642300
0.020110	53.500000	0.642300
0.020122	53.570000	0.645900
0.020134	53.570000	0.645900
0.020145	53.570000	0.645900
0.020156	53.570000	0.645900
0.020168	53.500000	0.645600
0.020180	53.500000	0.645600
0.020191	53.500000	0.645600
0.020203	53.500000	0.644600
0.020214	53.500000	0.644600
0.020226	53.500000	0.644600
0.020237	53.500000	0.641800
0.020249	53.500000	0.641800
0.020260	53.500000	0.638000
0.020272	53.500000	0.638000
0.020284	53.500000	0.638000
0.020295	53.500000	0.638000
0.020307	53.570000	0.643100
0.020318	53.570000	0.643100
0.020330	53.570000	0.643100
0.020342	53.570000	0.643700
0.020354	53.570000	0.643700
0.020365	53.570000	0.643700
0.020376	53.500000	0.645800
0.020388	53.500000	0.645800
0.020400	53.500000	0.645800
0.020411	53.570000	0.642400
0.020423	53.570000	0.642400
0.020434	53.500000	0.638700
0.020446	53.500000	0.638700
0.020458	53.500000	0.638700
0.020469	53.500000	0.638700
0.020481	53.570000	0.639800
0.020492	53.570000	0.639800
0.020504	53.570000	0.639800
0.020515	53.500000	0.633700
0.020527	53.500000	0.633700
0.020539	53.500000	0.633700
0.020550	53.500000	0.632900
0.020562	53.500000	0.632900
0.020574	53.500000	0.632900
0.020585	53.570000	0.638100
0.020596	53.570000	0.638100
0.020608	53.500000	0.644200
0.020620	53.500000	0.644200
0.020631	53.500000	0.644200
0.020643	53.500000	0.644200
0.020654	53.570000	0.643700
0.020666	53.570000	0.643700
0.020677	53.570000	0.643700
0.020689	53.570000	0.641400
0.020700	53.570000	0.641400
0.020712	53.570000	0.641400
0.020723	53.570000	0.635700
0.020735	53.570000	0.635700
0.020747	53.500000	0.635700
0.020758	53.500000	0.637800
0.020770	53.500000	0.637800
0.020782	53.570000	0.639300
0.020809	53.570000	0.639300
0.020831	53.570000	0.639300
0.020833	53.570000	0.640200
0.020840	53.570000	0.640200
0.020851	53.570000	0.640200
0.020863	53.500000	0.648200
0.020875	53.500000	0.648200
0.020886	53.500000	0.648200
0.020898	53.640000	0.658000
0.020909	53.640000	0.658000
0.020921	53.640000	0.664600
0.020932	53.640000	0.664600
0.020944	53.640000	0.664600
0.020956	44.130000	0.509000
0.020967	44.130000	0.509000
0.020979	44.130000	0.509000
0.020990	44.130000	0.509000
0.021002	45.410000	0.510000
0.021014	45.410000	0.510000
0.021025	45.410000	0.510000
0.021037	42.200000	0.472000
0.021048	42.200000	0.472000
0.021060	42.200000	0.472000
0.021072	45.200000	0.509600
0.021084	45.200000	0.509600
0.021094	44.910000	0.505900
0.021106	44.910000	0.505900
0.021118	44.910000	0.505900
0.021129	44.910000	0.505900
0.021141	43.700000	0.499200
0.021153	43.700000	0.499200
0.021164	43.700000	0.499200
0.021175	53.350000	0.635800
0.021187	53.350000	0.635800
0.021200	53.350000	0.635800
0.021210	53.570000	0.636700
0.021223	53.570000	0.636700
0.021270	53.570000	0.636700
0.021272	53.780000	0.645100
0.021280	53.780000	0.645100
0.021292	53.780000	0.645100
0.021304	53.780000	0.645100
0.021315	53.710000	0.640700
0.021326	53.710000	0.640700
0.021338	53.710000	0.640700
0.021350	53.500000	0.638400
0.021361	53.500000	0.638400
0.021373	53.500000	0.638400
0.021386	53.640000	0.641100
0.021396	53.640000	0.641100
0.021407	53.640000	0.641100
0.021419	53.500000	0.640600
0.021431	53.500000	0.640600
0.021446	53.500000	0.635700
0.021454	53.500000	0.635700
0.021465	53.500000	0.635700
0.021477	53.500000	0.635700
0.021489	53.710000	0.644100
0.021500	53.710000	0.644100
0.021511	53.710000	0.644100
0.021523	53.640000	0.641600
0.021535	53.640000	0.641600
0.021547	53.640000	0.641600
0.021558	53.570000	0.640000
0.021570	53.570000	0.640000
0.021582	53.570000	0.640300
0.021592	53.570000	0.640300
0.021604	53.570000	0.640300
0.021616	53.570000	0.640900
0.021627	53.570000	0.640900
0.021639	53.570000	0.640900
0.021650	53.570000	0.640900
0.021662	53.500000	0.637200
0.021674	53.500000	0.637200
0.021686	53.500000	0.637200
0.021697	53.570000	0.638200
0.021709	53.570000	0.638200
0.021720	53.570000	0.638200
0.021732	53.500000	0.640300
0.021744	53.500000	0.640300
0.021754	53.570000	0.644800
0.021766	53.570000	0.644800
0.021777	53.570000	0.644800
0.021790	53.570000	0.644800
0.021801	53.500000	0.639500
0.021813	53.500000	0.639500
0.021824	53.500000	0.639500
0.021836	53.420000	0.658100
0.021847	53.420000	0.658100
0.021860	53.420000	0.658100
0.021871	53.500000	0.639700
0.021882	53.500000	0.639700
0.021895	53.500000	0.639700
0.021911	53.500000	0.645800
0.021917	53.500000	0.645800
0.021940	53.500000	0.644100
0.021943	53.500000	0.644100
0.021952	53.500000	0.644100
0.021963	53.500000	0.644100
0.021974	53.500000	0.644200
0.021986	53.500000	0.644200
0.021997	53.500000	0.644200
0.022010	53.570000	0.645800
0.022021	53.570000	0.645800
0.022033	53.570000	0.645800
0.022044	53.780000	0.639500
0.022057	53.780000	0.639500
0.022068	53.780000	0.641300
0.022079	53.780000	0.641300
0.022091	53.780000	0.641300
0.022102	53.710000	0.639600
0.022115	53.710000	0.639600
0.022126	53.710000	0.639600
0.022138	53.710000	0.639600
0.022148	53.710000	0.642300
0.022160	53.710000	0.642300
0.022171	53.710000	0.642300
0.022183	53.850000	0.647900
0.022195	53.850000	0.647900
0.022207	53.850000	0.647900
0.022218	53.850000	0.644800
0.022230	53.850000	0.644800
0.022241	53.850000	0.643800
0.022253	53.850000	0.643800
0.022265	53.850000	0.643800
0.022276	53.780000	0.641200
0.022289	53.780000	0.641200
0.022300	53.780000	0.641200
0.022310	53.780000	0.641200
0.022322	53.780000	0.639500
0.022333	53.780000	0.639500
0.022345	53.780000	0.639500
0.022356	53.850000	0.642000
0.022368	53.850000	0.642000
0.022380	53.850000	0.642000
0.022391	53.850000	0.640800
0.022403	53.850000	0.640800
0.022415	53.930000	0.641800
0.022426	53.930000	0.641800
0.022438	53.930000	0.641800
0.022449	53.930000	0.641800
0.022461	54.070000	0.646900
0.022472	54.070000	0.646900
0.022484	54.070000	0.646900
0.022496	54.000000	0.643100
0.022509	54.000000	0.643100
0.022519	54.000000	0.643100
0.022530	45.340000	0.510800
0.022542	45.340000	0.510800
0.022554	45.700000	0.516300
0.022565	45.700000	0.516300
0.022577	45.700000	0.516300
0.022588	67.590000	0.774500
0.022600	67.590000	0.774500
0.022612	67.590000	0.774500
0.022623	67.590000	0.774500
0.022635	69.230000	0.789700
0.022646	69.230000	0.789700
0.022658	69.230000	0.789700
0.022670	69.660000	0.807800
0.022681	69.660000	0.807800
0.022705	69.660000	0.807800
0.022707	69.730000	0.820300
0.022716	69.730000	0.820300
0.022739	69.300000	0.820200
0.022741	69.300000	0.820200
0.022751	69.300000	0.820200
0.022762	69.370000	0.809400
0.022774	69.370000	0.809400
0.022786	69.370000	0.809400
0.022798	69.370000	0.809400
0.022809	69.370000	0.788700
0.022833	69.370000	0.788700
0.022836	69.370000	0.788700
0.022844	69.370000	0.794600
0.022855	69.370000	0.794600
0.022867	69.370000	0.794600
0.022879	69.300000	0.789600
0.022890	69.300000	0.789600
0.022902	69.370000	0.792300
0.022914	69.370000	0.792300
0.022936	69.450000	0.800000
0.022939	69.450000	0.800000
0.022948	69.450000	0.800000
0.022961	69.450000	0.800000
0.022972	69.450000	0.800000
0.022983	69.300000	0.791700
0.022994	69.300000	0.791700
0.023008	69.300000	0.791700
0.023018	69.450000	0.792300
0.023030	69.450000	0.792300
0.023041	69.590000	0.793600
0.023052	69.590000	0.793600
0.023064	69.590000	0.793600
0.023087	69.370000	0.790700
0.023089	69.370000	0.790700
0.023098	69.370000	0.790700
0.023110	69.370000	0.790700
0.023122	69.450000	0.793500
0.023144	69.450000	0.793500
0.023146	69.450000	0.793500
0.023156	69.520000	0.795400
0.023168	69.520000	0.795400
0.023180	69.520000	0.795400
0.023191	69.450000	0.789900
0.023205	69.450000	0.789900
0.023225	69.590000	0.788500
0.023236	69.590000	0.788500
0.023243	69.590000	0.788500
0.023251	69.520000	0.790900
0.023261	69.520000	0.790900
0.023271	69.520000	0.790900
0.023283	69.520000	0.790900
0.023295	69.450000	0.791500
0.023306	69.450000	0.791500
0.023318	69.450000	0.791500
0.023330	69.370000	0.789400
0.023341	69.370000	0.789400
0.023353	69.370000	0.789400
0.023364	69.450000	0.792800
0.023376	69.450000	0.792800
0.023387	69.660000	0.796400
0.023399	69.660000	0.796400
0.023410	69.660000	0.796400
0.023422	69.730000	0.798300
0.023433	69.730000	0.798300
0.023445	69.730000	0.798300
0.023457	69.730000	0.798300
0.023468	69.520000	0.795700
0.023481	69.520000	0.795700
0.023491	69.520000	0.795700
0.023503	69.730000	0.797800
0.023514	69.730000	0.797800
0.023526	69.590000	0.797800
0.023538	69.590000	0.796300
0.023549	69.590000	0.796300
0.023561	69.660000	0.794600
0.023572	69.660000	0.794600
0.023584	69.660000	0.794600
0.023596	69.660000	0.794600
0.023607	69.660000	0.794600
0.023619	69.660000	0.794600
0.023630	69.660000	0.794600
0.023642	69.590000	0.792600
0.023654	69.590000	0.792600
0.023666	69.590000	0.792600
0.023677	69.590000	0.794300
0.023688	69.590000	0.794300
0.023700	69.590000	0.794400
0.023712	69.590000	0.794400
0.023724	69.590000	0.794400
0.023735	69.590000	0.792400
0.023746	69.590000	0.792400
0.023759	69.590000	0.792400
0.023770	69.590000	0.792400
0.023781	69.590000	0.792400
0.023793	69.590000	0.792400
0.023804	69.590000	0.792400
0.023816	69.730000	0.796100
0.023827	69.730000	0.796100
0.023839	69.730000	0.796100
0.023851	69.660000	0.798600
0.023862	69.660000	0.798600
0.023874	69.660000	0.798200
0.023885	69.660000	0.798200
0.023897	69.660000	0.798200
0.023908	69.590000	0.798300
0.023920	69.590000	0.798300
0.023931	69.590000	0.798300
0.023943	69.590000	0.798300
0.023955	66.160000	0.743900
0.023967	66.160000	0.743900
0.023979	66.160000	0.743900
0.023989	46.270000	0.522800
0.024001	46.270000	0.522800
0.024013	42.840000	0.522800
0.024024	42.840000	0.485500
0.024035	42.840000	0.485500
0.024047	39.550000	0.446400
0.024059	39.550000	0.446400
0.024070	39.550000	0.446400
0.024082	39.550000	0.446400
0.024100	42.340000	0.521100
0.024128	42.340000	0.521100
0.024130	53.500000	0.644700
0.024141	53.500000	0.644700
0.024152	53.500000	0.644700
0.024164	53.710000	0.646500
0.024175	53.710000	0.646500
0.024186	53.640000	0.646800
0.024198	53.640000	0.646800
0.024221	53.710000	0.642300
0.024223	53.710000	0.642300
0.024236	53.710000	0.642300
0.024248	53.710000	0.642300
0.024256	53.710000	0.642300
0.024267	53.640000	0.641800
0.024279	53.640000	0.641800
0.024290	53.640000	0.641800
0.024302	53.640000	0.632500
0.024314	53.640000	0.632500
0.024325	53.640000	0.632500
0.024337	53.780000	0.640200
0.024348	53.780000	0.640200
0.024360	53.640000	0.641300
0.024371	53.640000	0.641300
0.024383	53.640000	0.641300
0.024395	53.570000	0.642800
0.024406	53.570000	0.642800
0.024418	53.570000	0.642800
0.024430	53.570000	0.642800
0.024441	53.640000	0.643000
0.024452	53.640000	0.643000
0.024465	53.640000	0.643000
0.024476	53.640000	0.636100
0.024487	53.640000	0.636100
0.024499	53.710000	0.630300
0.024511	53.710000	0.630300
0.024522	53.710000	0.630300
0.024534	53.640000	0.632800
0.024545	53.640000	0.632800
0.024557	53.640000	0.632800
0.024569	53.570000	0.633000
0.024580	53.570000	0.633000
0.024592	53.570000	0.633000
0.024603	53.570000	0.633000
0.024615	53.570000	0.640200
0.024627	53.570000	0.640200
0.024638	53.570000	0.640200
0.024650	53.570000	0.641100
0.024661	53.570000	0.641100
0.024673	53.570000	0.637700
0.024684	53.570000	0.637700
0.024696	53.570000	0.637700
0.024709	53.420000	0.640200
0.024719	53.420000	0.640200
0.024730	53.420000	0.640200
0.024745	53.640000	0.641300
0.024754	53.640000	0.641300
0.024766	53.640000	0.641300
0.024785	53.640000	0.641300
0.024789	53.710000	0.645700
0.024800	53.710000	0.645700
0.024812	53.710000	0.645700
0.024823	53.640000	0.643300
0.024836	53.640000	0.643300
0.024846	53.850000	0.645900
0.024858	53.850000	0.645900
0.024881	53.850000	0.642300
0.024883	53.850000	0.642300
0.024893	53.850000	0.642300
0.024906	53.850000	0.642300
0.024928	53.850000	0.642300
0.024930	53.780000	0.645100
0.024940	53.780000	0.645100
0.024951	53.780000	0.645100
0.024963	53.780000	0.646600
0.024974	53.780000	0.646600
0.024987	53.780000	0.646600
0.024997	53.930000	0.646200
0.025009	53.930000	0.646200
0.025020	54.000000	0.650600
0.025032	54.000000	0.650600
0.025043	54.000000	0.650600
0.025055	53.780000	0.653200
0.025067	53.780000	0.653200
0.025078	53.780000	0.653200
0.025090	53.780000	0.653200
0.025102	53.850000	0.652200
0.025114	53.850000	0.652200
0.025128	53.850000	0.652200
0.025136	53.930000	0.646900
0.025148	53.930000	0.646900
0.025160	53.850000	0.647000
0.025171	53.850000	0.647000
0.025182	53.850000	0.647000
0.025194	53.850000	0.644300
0.025218	53.850000	0.644300
0.025219	53.850000	0.644300
0.025241	53.850000	0.647700
0.025243	53.850000	0.647700
0.025252	53.850000	0.647700
0.025268	53.850000	0.647700
0.025277	53.850000	0.647500
0.025286	53.850000	0.647500
0.025298	53.850000	0.647500
0.025310	53.780000	0.642400
0.025321	53.780000	0.642400
0.025333	53.780000	0.642200
0.025345	53.780000	0.642200
0.025356	53.780000	0.642200
0.025368	53.780000	0.640500
0.025380	53.780000	0.640500
0.025391	53.780000	0.640500
0.025403	53.780000	0.644100
0.025414	53.780000	0.644100
0.025426	53.780000	0.644100
0.025437	53.780000	0.644100
0.025450	53.710000	0.643700
0.025460	53.710000	0.643700
0.025476	53.710000	0.643700
0.025487	46.420000	0.526200
0.025504	46.420000	0.526200
0.025507	54.780000	0.673100
0.025518	54.780000	0.673100
0.025530	54.780000	0.673100
0.025541	68.440000	0.815800
0.025553	68.440000	0.815800
0.025565	68.440000	0.815800
0.025576	68.440000	0.815800
0.025588	69.450000	0.826200
0.025599	69.450000	0.826200
0.025611	69.450000	0.826200
0.025622	69.520000	0.823200
0.025635	69.520000	0.823200
0.025645	69.520000	0.823200
0.025657	69.520000	0.822400
0.025670	69.520000	0.822400
0.025684	69.520000	0.796700
0.025698	69.520000	0.796700
0.025707	69.520000	0.796700
0.025715	69.450000	0.796700
0.025727	69.450000	0.796700
0.025738	69.450000	0.796700
0.025750	69.450000	0.796700
0.025761	69.590000	0.797500
0.025773	69.590000	0.797500
0.025784	69.590000	0.797500
0.025796	69.590000	0.799200
0.025808	69.590000	0.799200
0.025819	69.590000	0.799200
0.025831	69.590000	0.799200
0.025842	69.590000	0.799200
0.025854	69.590000	0.793900
0.025866	69.590000	0.793900
0.025877	69.590000	0.793900
0.025889	69.590000	0.792600
0.025901	69.590000	0.792600
0.025912	69.590000	0.792600
0.025929	69.590000	0.794800
0.025938	69.590000	0.794800
0.025948	69.590000	0.794800
0.025961	69.590000	0.794800
0.025971	69.520000	0.801000
0.025983	69.520000	0.801000
0.025994	69.660000	0.796300
0.026007	69.660000	0.796300
0.026016	69.660000	0.796300
0.026028	69.520000	0.793500
0.026039	69.520000	0.793500
0.026051	69.520000	0.793500
0.026063	69.520000	0.792700
0.026074	69.520000	0.792700
0.026086	69.520000	0.792700
0.026097	69.520000	0.792700
0.026109	69.370000	0.792200
0.026120	69.370000	0.792200
0.026132	69.370000	0.792200
0.026144	69.730000	0.799200
0.026156	69.730000	0.799200
0.026167	69.590000	0.799300
0.026178	69.590000	0.799300
0.026194	69.590000	0.799300
0.026202	69.590000	0.798300
0.026213	69.590000	0.798300
0.026226	69.590000	0.798300
0.026238	69.520000	0.794800
0.026248	69.520000	0.794800
0.026259	69.520000	0.794800
0.026271	69.520000	0.794800
0.026283	69.520000	0.794400
0.026296	69.520000	0.794400
0.026311	69.370000	0.794400
0.026319	69.370000	0.793900
0.026332	69.370000	0.793900
0.026345	69.590000	0.797600
0.026360	69.590000	0.797600
0.026366	69.590000	0.797600
0.026375	69.520000	0.798000
0.026387	69.520000	0.798000
0.026398	69.520000	0.798000
0.026410	69.520000	0.798000
0.026422	69.450000	0.799500
0.026433	69.450000	0.799500
0.026445	69.450000	0.799500
0.026456	69.660000	0.805600
0.026468	69.660000	0.805600
0.026479	69.590000	0.806300
0.026491	69.590000	0.806300
0.026503	69.590000	0.806300
0.026514	69.590000	0.800400
0.026526	69.590000	0.800400
0.026537	69.590000	0.800400
0.026549	69.590000	0.800400
0.026561	69.590000	0.800400
0.026572	69.590000	0.800400
0.026584	69.590000	0.800400
0.026595	69.520000	0.798800
0.026607	69.520000	0.798800
0.026618	69.520000	0.798800
0.026630	69.520000	0.801800
0.026642	69.520000	0.801800
0.026653	69.450000	0.797000
0.026665	69.450000	0.797000
0.026676	69.450000	0.797000
0.026688	69.450000	0.809200
0.026699	69.450000	0.809200
0.026711	69.450000	0.809200
0.026723	69.450000	0.809200
0.026734	69.590000	0.806900
0.026746	69.590000	0.806900
0.026757	69.590000	0.806900
0.026769	69.590000	0.801700
0.026780	69.590000	0.801700
0.026792	69.520000	0.800800
0.026803	69.520000	0.800800
0.026815	69.520000	0.800800
0.026827	69.590000	0.805100
0.026838	69.590000	0.805100
0.026850	69.590000	0.805100
0.026861	69.520000	0.805100
0.026873	69.520000	0.805100
0.026885	69.520000	0.805100
0.026896	69.520000	0.805100
0.026908	71.310000	0.796000
0.026919	71.310000	0.796000
0.026931	71.310000	0.796000
0.026943	79.250000	0.875500
0.026954	79.250000	0.875500
0.026966	73.380000	0.817400
0.026977	73.380000	0.817400
0.026989	73.380000	0.817400
0.027001	72.950000	0.811300
0.027012	72.950000	0.811300
0.027024	72.950000	0.811300
0.027035	59.500000	0.706100
0.027047	59.500000	0.706100
0.027058	59.500000	0.706100
0.027070	59.500000	0.706100
0.027082	56.860000	0.680300
0.027094	56.860000	0.680300
0.027105	56.860000	0.680300
0.027117	52.920000	0.641900
0.027163	52.920000	0.641900
0.027200	48.990000	0.599900
0.027236	48.850000	0.602500
0.027239	48.850000	0.603700
0.027244	48.850000	0.603700
0.027256	48.850000	0.602100
0.027268	48.850000	0.602100
0.027279	48.850000	0.602100
0.027291	48.850000	0.602100
0.027302	48.850000	0.602100
0.027314	48.850000	0.601100
0.027325	48.850000	0.601100
0.027337	48.850000	0.601100
0.027348	48.850000	0.600400
0.027360	48.850000	0.600400
0.027372	48.850000	0.600400
0.027383	48.920000	0.606500
0.027395	48.920000	0.606500
0.027406	48.920000	0.606500
0.027418	48.920000	0.606500
0.027430	48.700000	0.603400
0.027442	48.700000	0.603400
0.027453	48.700000	0.607700
0.027464	48.700000	0.607700
0.027476	48.700000	0.607700
0.027487	48.700000	0.607100
0.027499	48.700000	0.607100
0.027511	48.700000	0.607100
0.027522	48.780000	0.603500
0.027534	48.780000	0.603500
0.027546	48.780000	0.603500
0.027557	48.780000	0.603500
0.027569	48.630000	0.597800
0.027581	48.630000	0.597800
0.027591	48.630000	0.597800
0.027603	48.700000	0.597800
0.027615	48.700000	0.597800
0.027626	48.630000	0.601200
0.027639	48.630000	0.601200
0.027649	48.630000	0.601200
0.027661	48.700000	0.602100
0.027673	48.700000	0.602100
0.027684	48.700000	0.602100
0.027696	48.700000	0.600100
0.027707	48.700000	0.600100
0.027719	48.700000	0.600100
0.027731	48.700000	0.600100
0.027742	48.630000	0.598800
0.027755	48.630000	0.598800
0.027765	48.630000	0.598800
0.027777	48.700000	0.601100
0.027788	48.700000	0.601100
0.027800	48.630000	0.602200
0.027812	48.630000	0.602200
0.027823	48.630000	0.602200
0.027835	48.560000	0.598800
0.027847	48.560000	0.598800
0.027858	48.560000	0.598800
0.027870	48.630000	0.598000
0.027882	48.630000	0.598000
0.027893	48.630000	0.598000
0.027904	48.630000	0.598000
0.027916	48.560000	0.596900
0.027928	48.560000	0.596900
0.027939	48.630000	0.596900
0.027951	48.630000	0.596500
0.027963	48.630000	0.596500
0.027974	48.630000	0.595400
0.027986	48.630000	0.595400
0.027997	48.630000	0.595400
0.028009	48.630000	0.595400
0.028021	48.630000	0.595400
0.028032	48.630000	0.595400
0.028044	48.630000	0.595100
0.028057	48.630000	0.595100
0.028067	48.630000	0.595100
0.028079	48.630000	0.595100
0.028090	48.630000	0.594400
0.028102	48.630000	0.594400
0.028113	48.630000	0.592800
0.028125	48.630000	0.592800
0.028136	48.630000	0.592800
0.028148	57.290000	0.595800
0.028160	57.290000	0.595800
0.028171	57.290000	0.595800
0.028183	51.560000	0.537300
0.028195	51.560000	0.537300
0.028206	51.560000	0.537300
0.028217	51.560000	0.541700
0.028229	51.560000	0.541700
0.028241	51.560000	0.541700
0.028253	51.560000	0.541700
0.028265	69.450000	0.754100
0.028276	69.450000	0.754100
0.028289	70.950000	0.772100
0.028300	70.950000	0.772100
0.028310	70.950000	0.772100
0.028323	71.230000	0.775500
0.028334	71.230000	0.775500
0.028345	71.230000	0.775500
0.028356	71.230000	0.774700
0.028369	71.230000	0.774700
0.028380	71.230000	0.774700
0.028391	71.310000	0.775600
0.028403	71.310000	0.775600
0.028415	71.310000	0.775600
0.028426	71.310000	0.775600
0.028438	71.160000	0.773300
0.028449	71.160000	0.773300
0.028461	71.160000	0.770500
0.028472	71.160000	0.770500
0.028484	71.160000	0.770500
0.028495	71.380000	0.773100
0.028507	71.380000	0.773100
0.028519	71.380000	0.773100
0.028530	71.310000	0.773300
0.028542	71.310000	0.773300
0.028553	71.310000	0.773300
0.028566	71.310000	0.773300
0.028577	71.160000	0.768800
0.028588	71.160000	0.768800
0.028600	71.160000	0.777900
0.028611	71.160000	0.777900
0.028623	71.160000	0.777900
0.028635	71.230000	0.793500
0.028646	71.230000	0.793500
0.028658	71.230000	0.793500
0.028669	71.230000	0.797300
0.028682	71.230000	0.797300
0.028692	71.230000	0.797300
0.028704	71.230000	0.793800
0.028716	71.230000	0.793800
0.028727	71.230000	0.793800
0.028739	71.230000	0.793800
0.028751	71.230000	0.793800
0.028763	71.230000	0.793800
0.028774	71.090000	0.785200
0.028786	71.090000	0.785200
0.028797	71.090000	0.785200
0.028808	71.090000	0.790500
0.028820	71.090000	0.790500
0.028831	71.090000	0.790500
0.028844	71.160000	0.794500
0.028854	71.160000	0.794500
0.028866	71.160000	0.794500
0.028878	71.090000	0.796500
0.028889	71.090000	0.796500
0.028901	71.090000	0.796500
0.028913	71.090000	0.796500
0.028924	71.230000	0.789200
0.028936	71.230000	0.789200
0.028947	71.380000	0.783300
0.028959	71.380000	0.783300
0.028970	71.380000	0.783300
0.028982	71.380000	0.780200
0.028994	71.380000	0.780200
0.029005	71.380000	0.780200
0.029017	65.440000	0.770700
0.029028	65.440000	0.770700
0.029040	65.440000	0.770700
0.029052	65.580000	0.769900
0.029064	65.580000	0.769900
0.029076	65.580000	0.769900
0.029087	65.580000	0.769900
0.029099	65.660000	0.772600
0.029146	65.660000	0.772600
0.029148	65.510000	0.761000
0.029156	65.580000	0.762500
0.029167	65.580000	0.762500
0.029179	65.580000	0.762500
0.029191	65.660000	0.757800
0.029202	65.660000	0.757800
0.029213	65.660000	0.757800
0.029229	65.510000	0.764800
0.029237	65.510000	0.764800
0.029248	65.510000	0.764800
0.029260	65.660000	0.764800
0.029272	65.660000	0.777300
0.029284	65.660000	0.777300
0.029294	65.580000	0.765800
0.029306	65.580000	0.765800
0.029318	65.580000	0.765800
0.029329	65.580000	0.764800
0.029341	65.580000	0.764800
0.029353	65.580000	0.764800
0.029364	65.660000	0.765400
0.029377	65.660000	0.765400
0.029387	65.660000	0.765400
0.029399	65.660000	0.765400
0.029410	65.580000	0.771000
0.029422	65.580000	0.771000
0.029434	65.660000	0.783600
0.029445	65.660000	0.783600
0.029457	65.660000	0.783600
0.029468	65.660000	0.783600
0.029480	65.660000	0.783600
0.029491	65.660000	0.783600
0.029503	65.660000	0.747200
0.029515	65.660000	0.747200
0.029526	65.660000	0.747200
0.029538	65.580000	0.748700
0.029549	65.580000	0.748700
0.029561	65.580000	0.748700
0.029573	65.580000	0.748700
0.029584	65.660000	0.752300
0.029596	65.660000	0.752300
0.029607	65.660000	0.771800
0.029619	65.660000	0.771800
0.029631	65.660000	0.771800
0.029642	65.730000	0.770200
0.029654	65.730000	0.770200
0.029665	65.730000	0.770200
0.029676	65.660000	0.768500
0.029688	65.660000	0.768500
0.029700	65.660000	0.768500
0.029712	65.660000	0.764100
0.029723	65.660000	0.764100
0.029735	65.660000	0.764100
0.029746	65.660000	0.764100
0.029758	65.660000	0.765300
0.029769	65.660000	0.765300
0.029782	65.660000	0.766300
0.029793	65.660000	0.766300
0.029805	65.660000	0.766300
0.029817	65.660000	0.767000
0.029828	65.660000	0.767000
0.029840	65.660000	0.767000
0.029850	65.660000	0.767600
0.029862	65.660000	0.767600
0.029874	65.660000	0.767600
0.029885	65.660000	0.767600
0.029897	65.800000	0.765900
0.029909	65.800000	0.765900
0.029920	65.660000	0.763400
0.029931	65.660000	0.763400
0.029943	65.660000	0.763400
0.029955	65.730000	0.762600
0.029966	65.730000	0.762600
0.029977	65.730000	0.762600
0.029989	65.730000	0.762800
0.030001	65.730000	0.762800
0.030013	65.730000	0.762800
0.030024	65.870000	0.766800
0.030035	65.870000	0.766800
0.030047	65.870000	0.766800
0.030059	65.870000	0.766800
0.030072	65.730000	0.766200
0.030082	65.730000	0.766200
0.030093	65.800000	0.760100
0.030106	65.800000	0.760100
0.030116	65.800000	0.760100
0.030128	65.800000	0.758800
0.030140	65.800000	0.758800
0.030151	65.800000	0.758800
0.030163	65.730000	0.759700
0.030175	65.730000	0.759700
0.030188	65.730000	0.759700
0.030198	65.730000	0.759700
0.030209	65.730000	0.759700
0.030221	65.730000	0.759700
0.030232	65.730000	0.759700
0.030244	65.730000	0.753100
0.030256	65.730000	0.753100
0.030267	65.800000	0.750600
0.030279	65.800000	0.750600
0.030290	65.800000	0.750600
0.030302	57.640000	0.649300
0.030313	57.640000	0.649300
0.030325	57.640000	0.649300
0.030336	47.340000	0.531500
0.030348	47.340000	0.531500
0.030360	47.340000	0.531500
0.030372	47.340000	0.531500
0.030384	39.830000	0.476600
0.030395	39.830000	0.476600
0.030407	53.420000	0.639800
0.030418	53.420000	0.639800
0.030430	53.420000	0.639800
0.030441	54.350000	0.649100
0.030453	54.350000	0.649100
0.030465	54.350000	0.649100
0.030476	54.280000	0.649200
0.030488	54.280000	0.649200
0.030499	54.280000	0.649200
0.030511	54.500000	0.651100
0.030523	54.500000	0.651100
0.030535	54.500000	0.651100
0.030546	54.500000	0.651100
0.030557	54.210000	0.650100
0.030569	54.210000	0.650100
0.030581	54.280000	0.652100
0.030593	54.280000	0.652100
0.030604	54.280000	0.652100
0.030615	54.350000	0.654900
0.030627	54.350000	0.654900
0.030639	54.350000	0.654900
0.030650	54.280000	0.656800
0.030662	54.280000	0.656800
0.030673	54.280000	0.656800
0.030685	54.210000	0.658800
0.030697	54.210000	0.658800
0.030710	54.210000	0.658800
0.030720	54.210000	0.658800
0.030731	54.210000	0.654600
0.030743	54.210000	0.654600
0.030754	54.210000	0.658000
0.030766	54.210000	0.658000
0.030778	54.210000	0.658000
0.030790	54.280000	0.658400
0.030801	54.280000	0.658400
0.030812	54.280000	0.658400
0.030824	54.280000	0.656400
0.030836	54.280000	0.656400
0.030848	54.280000	0.656400
0.030859	54.210000	0.654400
0.030870	54.210000	0.654400
0.030884	54.210000	0.654400
0.030893	54.140000	0.657700
0.030905	54.140000	0.657700
0.030917	54.140000	0.657700
0.030928	54.140000	0.657700
0.030940	54.140000	0.657700
0.030951	54.140000	0.657700
0.030963	54.280000	0.656000
0.030975	54.280000	0.656000
0.030986	54.280000	0.656000
0.030998	54.350000	0.654800
0.031009	54.350000	0.654800
0.031021	54.350000	0.654800
0.031033	54.000000	0.650200
0.031044	54.000000	0.650200
0.031056	54.000000	0.650200
0.031067	54.000000	0.649400
0.031079	54.000000	0.649400
0.031090	54.000000	0.649400
0.031102	54.000000	0.652800
0.031114	54.000000	0.652800
0.031126	54.000000	0.652800
0.031137	53.930000	0.668800
0.031149	53.930000	0.668800
0.031160	53.930000	0.668800
0.031172	53.930000	0.677600
0.031183	53.930000	0.677600
0.031195	53.930000	0.677600
0.031207	54.000000	0.674200
0.031218	54.000000	0.674200
0.031230	54.000000	0.674200
0.031241	53.850000	0.671300
0.031254	53.850000	0.671300
0.031265	53.850000	0.671300
0.031276	53.930000	0.666900
0.031289	53.930000	0.666900
0.031300	53.930000	0.666900
0.031312	53.780000	0.644200
0.031322	53.780000	0.644200
0.031334	53.780000	0.644200
0.031346	53.930000	0.648100
0.031357	53.930000	0.648100
0.031369	53.930000	0.648100
0.031383	53.930000	0.648700
0.031392	53.930000	0.648700
0.031403	53.930000	0.648700
0.031415	53.850000	0.641400
0.031426	53.850000	0.641400
0.031438	53.850000	0.641400
0.031450	54.000000	0.646500
0.031461	54.000000	0.646500
0.031473	54.000000	0.646500
0.031484	53.930000	0.646500
0.031496	53.930000	0.646500
0.031507	53.930000	0.646500
0.031519	53.930000	0.646500
0.031531	53.930000	0.646500
0.031542	53.930000	0.646500
0.031554	53.850000	0.647900
0.031566	53.850000	0.647900
0.031577	53.850000	0.647900
0.031589	53.930000	0.649900
0.031600	53.930000	0.649900
0.031613	53.930000	0.649900
0.031623	53.930000	0.649800
0.031635	53.930000	0.649800
0.031646	53.930000	0.649800
0.031664	53.930000	0.649800
0.031670	53.930000	0.649800
0.031681	54.000000	0.650400
0.031693	54.000000	0.650400
0.031704	54.000000	0.650400
0.031715	54.000000	0.650400
0.031728	54.070000	0.649200
0.031739	54.070000	0.649200
0.031751	54.070000	0.649200
0.031762	54.640000	0.651700
0.031774	54.640000	0.651700
0.031785	54.640000	0.651700
0.031797	45.630000	0.524800
0.031808	45.630000	0.524800
0.031820	45.630000	0.524800
0.031832	42.270000	0.485500
0.031843	42.270000	0.485500
0.031855	42.270000	0.485500
0.031867	48.630000	0.574300
0.031878	48.630000	0.574300
0.031889	48.630000	0.574300
0.031902	65.080000	0.763700
0.031913	65.080000	0.763700
0.031925	65.080000	0.763700
0.031936	65.660000	0.770700
0.031947	65.660000	0.770700
0.031959	65.660000	0.770700
0.031971	65.940000	0.781100
0.031982	65.940000	0.781100
0.031993	65.940000	0.781100
0.032005	65.870000	0.793800
0.032017	65.870000	0.793800
0.032028	65.870000	0.793800
0.032040	65.940000	0.796700
0.032051	65.940000	0.796700
0.032063	65.940000	0.796700
0.032074	65.800000	0.793700
0.032086	65.800000	0.793700
0.032098	65.800000	0.793700
0.032110	65.870000	0.794500
0.032121	65.870000	0.794500
0.032133	65.870000	0.794500
0.032144	65.870000	0.779900
0.032156	65.870000	0.779900
0.032167	65.800000	0.779900
0.032179	65.800000	0.786100
0.032191	65.800000	0.786100
0.032203	65.800000	0.786100
0.032214	65.730000	0.788100
0.032225	65.730000	0.788100
0.032237	65.730000	0.788100
0.032249	65.870000	0.784600
0.032260	65.870000	0.784600
0.032273	65.870000	0.784600
0.032283	65.800000	0.776200
0.032296	65.800000	0.776200
0.032318	65.870000	0.765400
0.032319	65.870000	0.765400
0.032330	65.870000	0.765400
0.032341	65.800000	0.766900
0.032352	65.800000	0.766900
0.032364	65.800000	0.766900
0.032376	65.800000	0.766900
0.032387	65.800000	0.766900
0.032398	65.800000	0.766900
0.032410	65.800000	0.766900
0.032422	65.660000	0.763800
0.032433	65.660000	0.763800
0.032445	65.660000	0.763800
0.032457	65.730000	0.764600
0.032468	65.730000	0.764600
0.032480	65.730000	0.764600
0.032492	65.660000	0.765100
0.032503	65.660000	0.765100
0.032515	65.660000	0.765100
0.032526	65.800000	0.766500
0.032538	65.800000	0.766500
0.032549	65.800000	0.766500
0.032561	65.660000	0.765700
0.032573	65.660000	0.765700
0.032584	65.660000	0.765700
0.032596	65.800000	0.769600
0.032607	65.800000	0.769600
0.032619	65.800000	0.769600
0.032630	65.800000	0.769900
0.032642	65.800000	0.769900
0.032653	65.730000	0.769900
0.032665	65.730000	0.771300
0.032677	65.730000	0.771300
0.032688	65.730000	0.771300
0.032700	65.800000	0.772500
0.032711	65.800000	0.772500
0.032723	65.800000	0.772500
0.032735	65.730000	0.774900
0.032746	65.730000	0.774900
0.032758	65.730000	0.774900
0.032769	65.730000	0.772800
0.032781	65.730000	0.772800
0.032792	65.730000	0.772800
0.032804	65.800000	0.769900
0.032816	65.800000	0.769900
0.032827	65.800000	0.766800
0.032839	65.800000	0.766800
0.032850	65.800000	0.766800
0.032862	65.800000	0.766800
0.032873	65.800000	0.764600
0.032886	65.800000	0.764600
0.032897	65.800000	0.764600
0.032908	65.800000	0.777700
0.032920	65.800000	0.777700
0.032931	65.800000	0.777700
0.032943	65.800000	0.778900
0.032955	65.800000	0.778900
0.032966	65.800000	0.778900
0.032978	65.800000	0.781900
0.032989	65.800000	0.781900
0.033001	65.800000	0.781900
0.033012	65.730000	0.789300
0.033025	65.730000	0.789300
0.033036	65.730000	0.789300
0.033047	65.730000	0.782900
0.033059	65.730000	0.782900
0.033070	65.730000	0.782900
0.033082	65.730000	0.788500
0.033094	65.730000	0.788500
0.033105	65.730000	0.788500
0.033117	65.730000	0.788500
0.033128	65.730000	0.788500
0.033141	65.730000	0.783200
0.033151	65.730000	0.783200
0.033163	65.730000	0.783200
0.033175	65.730000	0.783200
0.033186	65.730000	0.784000
0.033198	65.730000	0.784000
0.033209	65.730000	0.784000
0.033222	65.730000	0.782600
0.033232	65.730000	0.782600
0.033244	65.730000	0.782600
0.033255	65.800000	0.779900
0.033267	65.800000	0.779900
0.033279	65.800000	0.779900
0.033290	65.800000	0.770900
0.033302	65.800000	0.770900
0.033313	65.800000	0.769200
0.033325	65.800000	0.769200
0.033337	65.800000	0.769200
0.033348	65.800000	0.769200
0.033360	65.870000	0.772200
0.033372	65.870000	0.772200
0.033383	65.870000	0.772200
0.033394	65.660000	0.768300
0.033406	65.660000	0.768300
0.033417	65.660000	0.768300
0.033429	65.800000	0.769400
0.033441	65.800000	0.769400
0.033452	65.800000	0.769400
0.033464	65.800000	0.767300
0.033476	65.800000	0.767300
0.033487	65.800000	0.767300
0.033499	65.730000	0.762900
0.033511	65.730000	0.762900
0.033522	65.730000	0.762900
0.033533	65.870000	0.760300
0.033545	65.870000	0.760300
0.033557	65.870000	0.760300
0.033569	65.800000	0.760800
0.033580	65.800000	0.760800
0.033591	65.800000	0.760800
0.033603	65.800000	0.763100
0.033615	65.800000	0.763100
0.033632	65.800000	0.763700
0.033638	65.800000	0.763700
0.033649	65.800000	0.763700
0.033661	65.800000	0.763700
0.033672	65.870000	0.761100
0.033684	65.870000	0.761100
0.033695	65.870000	0.761100
0.033707	65.730000	0.759700
0.033719	65.730000	0.759700
0.033730	65.730000	0.759700
0.033742	65.730000	0.760700
0.033754	65.730000	0.760700
0.033765	65.730000	0.760700
0.033777	65.800000	0.758500
0.033789	65.800000	0.758500
0.033800	65.870000	0.759600
0.033811	65.870000	0.759600
0.033823	65.870000	0.759600
0.033835	65.870000	0.759600
0.033846	65.870000	0.759600
0.033858	65.870000	0.759600
0.033869	65.870000	0.759600
0.033881	65.940000	0.763800
0.033893	65.940000	0.763800
0.033904	65.940000	0.763800
0.033916	65.940000	0.762200
0.033927	65.940000	0.762200
0.033939	65.940000	0.762200
0.033950	54.930000	0.621000
0.033962	54.930000	0.621000
0.033974	45.060000	0.514900
0.033985	45.060000	0.514900
0.033997	45.060000	0.514900
0.034009	45.060000	0.514900
0.034020	41.980000	0.493100
0.034032	41.980000	0.493100
0.034044	41.980000	0.493100
0.034055	32.250000	0.407200
0.034067	32.250000	0.407200
0.034078	32.250000	0.407200
0.034090	26.170000	0.333100
0.034101	26.170000	0.333100
0.034113	18.880000	0.233900
0.034125	18.880000	0.233900
0.034136	18.880000	0.233900
0.034148	18.880000	0.233900
0.034159	15.090000	0.189200
0.034171	15.090000	0.189200
0.034183	15.090000	0.189200
0.034194	12.370000	0.156800
0.034206	12.370000	0.156800
0.034217	12.370000	0.156800
0.034229	4.930000	0.083700
0.034240	4.930000	0.083700
0.034252	4.930000	0.083700
0.034264	7.360000	0.104400
0.034275	7.360000	0.104400
0.034324	15.440000	0.191600
0.034325	18.380000	0.229300
0.034333	18.380000	0.229300
0.034345	18.380000	0.229300
0.034356	18.380000	0.229300
0.034368	4.140000	0.064800
0.034379	4.140000	0.064800
0.034391	4.140000	0.064800
0.034402	21.670000	0.286000
0.034414	21.670000	0.286000
0.034425	21.670000	0.286000
0.034437	19.590000	0.245100
0.034449	19.590000	0.245100
0.034460	19.380000	0.242200
0.034472	19.380000	0.242200
0.034485	19.380000	0.242200
0.034495	19.380000	0.242200
0.034506	19.380000	0.241800
0.034518	19.380000	0.241800
0.034530	19.380000	0.241800
0.034541	19.380000	0.242100
0.034554	19.380000	0.242100
0.034564	19.380000	0.242100
0.034576	19.380000	0.242100
0.034588	19.380000	0.242100
0.034599	17.880000	0.222300
0.034611	17.880000	0.222300
0.034622	17.880000	0.222300
0.034634	17.880000	0.222300
0.034646	15.090000	0.187500
0.034657	15.090000	0.187500
0.034669	15.090000	0.187500
0.034680	13.440000	0.167700
0.034692	13.440000	0.167700
0.034703	13.440000	0.167700
0.034715	12.300000	0.157000
0.034727	12.300000	0.157000
0.034739	12.300000	0.157000
0.034750	12.230000	0.155400
0.034761	12.230000	0.155400
0.034773	6.720000	0.104500
0.034784	6.720000	0.104500
0.034796	6.720000	0.104500
0.034807	6.720000	0.104500
0.034819	16.370000	0.231000
0.034832	16.370000	0.231000
0.034959	17.950000	0.223700
0.034961	14.660000	0.187800
0.034969	14.660000	0.187800
0.034981	14.660000	0.187800
0.034993	4.360000	0.067900
0.035004	4.360000	0.067900
0.035016	4.360000	0.067900
0.035027	4.360000	0.067400
0.035039	4.360000	0.067400
0.035051	4.360000	0.067400
0.035062	4.360000	0.067200
0.035074	4.360000	0.067200
0.035086	5.500000	0.088000
0.035097	5.500000	0.088000
0.035108	5.500000	0.088000
0.035120	5.500000	0.088000
0.035132	13.660000	0.174600
0.035143	13.660000	0.174600
0.035155	13.660000	0.174600
0.035166	9.220000	0.125100
0.035177	9.220000	0.125100
0.035189	9.220000	0.125100
0.035201	9.940000	0.131700
0.035213	9.940000	0.131700
0.035224	9.940000	0.131700
0.035236	4.290000	0.067600
0.035247	4.290000	0.067600
0.035259	4.290000	0.067300
0.035270	4.290000	0.067300
0.035282	4.290000	0.067300
0.035294	4.290000	0.067300
0.035305	4.290000	0.067300
0.035316	4.290000	0.067300
0.035328	4.290000	0.067300
0.035340	4.290000	0.067300
0.035352	4.290000	0.067300
0.035364	4.290000	0.067300
0.035375	4.290000	0.067500
0.035386	4.290000	0.067500
0.035398	4.290000	0.067500
0.035409	4.290000	0.067400
0.035421	4.290000	0.067400
0.035432	4.360000	0.067200
0.035444	4.360000	0.067200
0.035456	4.360000	0.067200
0.035467	4.360000	0.067200
0.035479	4.360000	0.067100
0.035490	4.360000	0.067100
0.035502	4.360000	0.067100
0.035514	4.290000	0.066900
0.035525	4.290000	0.066900
0.035537	4.290000	0.066900
0.035548	4.290000	0.067300
0.035560	4.290000	0.067300
0.035571	4.360000	0.067300
0.035584	4.360000	0.067000
0.035595	4.360000	0.067000
0.035606	4.290000	0.066800
0.035618	4.290000	0.066800
0.035638	4.290000	0.066800
0.035658	4.290000	0.067200
0.035663	4.290000	0.067200
0.035665	4.290000	0.067200
0.035676	4.290000	0.067200
0.035687	4.290000	0.067700
0.035699	4.290000	0.067700
0.035711	4.290000	0.067700
0.035722	4.290000	0.067200
0.035734	4.290000	0.067200
0.035745	4.430000	0.067800
0.035757	4.430000	0.067800
0.035768	4.430000	0.067800
0.035780	4.570000	0.070300
0.035791	4.570000	0.070300
0.035803	4.570000	0.070300
0.035815	4.570000	0.070300
0.035826	4.500000	0.070300
0.035838	4.500000	0.070300
0.035850	4.500000	0.070300
0.035861	4.570000	0.071000
0.035873	4.570000	0.071000
0.035884	4.570000	0.071000
0.035896	4.570000	0.070600
0.035907	4.570000	0.070600
0.035919	9.580000	0.093100
0.035931	9.580000	0.093100
0.035944	9.580000	0.093100
0.035955	9.580000	0.093100
0.035966	19.880000	0.126600
0.035978	19.880000	0.126600
0.035989	19.880000	0.126600
0.036001	15.520000	0.105700
0.036012	15.520000	0.105700
0.036023	15.520000	0.105700
0.036035	15.520000	0.105700
0.036046	15.520000	0.105700
0.036058	15.520000	0.105700
0.036069	15.440000	0.105600
0.036081	15.440000	0.105600
0.036094	15.440000	0.106000
0.036104	15.440000	0.106000
0.036116	15.440000	0.106000
0.036128	15.440000	0.106000
0.036140	15.440000	0.106000
0.036151	15.440000	0.106000
0.036162	15.440000	0.106000
0.036174	15.520000	0.105900
0.036185	15.520000	0.105900
0.036197	15.520000	0.105900
0.036208	15.520000	0.104800
0.036220	15.520000	0.104800
0.036231	15.520000	0.104800
0.036243	15.520000	0.104500
0.036255	15.520000	0.104500
0.036267	15.520000	0.104400
0.036278	15.520000	0.104400
0.036289	15.520000	0.104400
0.036301	15.520000	0.104400
0.036313	15.520000	0.104400
0.036324	15.520000	0.104400
0.036336	15.520000	0.104400
0.036347	15.440000	0.104700
0.036359	15.440000	0.104700
0.036370	15.440000	0.104700
0.036382	15.440000	0.104600
0.036394	15.440000	0.104600
0.036405	35.040000	0.338200
0.036417	35.040000	0.338200
0.036429	35.040000	0.338200
0.036440	20.240000	0.224900
0.036451	20.240000	0.224900
0.036463	20.240000	0.224900
0.036475	20.240000	0.224900
0.036486	40.120000	0.403400
0.036497	40.120000	0.403400
0.036509	40.120000	0.403400
0.036521	52.210000	0.529200
0.036534	52.210000	0.529200
0.036544	52.210000	0.529200
0.036556	53.710000	0.542100
0.036567	53.710000	0.542100
0.036579	53.710000	0.547100
0.036590	53.710000	0.547100
0.036602	53.710000	0.547100
0.036614	53.710000	0.547100
0.036625	53.710000	0.547200
0.036637	53.710000	0.547200
0.036648	53.710000	0.547200
0.036660	46.060000	0.532100
0.036671	46.060000	0.532100
0.036683	46.060000	0.532100
0.036694	51.350000	0.524900
0.036707	51.350000	0.524900
0.036717	51.350000	0.524900
0.036729	51.850000	0.536600
0.036741	51.850000	0.536600
0.036753	36.040000	0.386400
0.036764	36.040000	0.386400
0.036776	36.040000	0.386400
0.036788	36.040000	0.386400
0.036800	35.690000	0.382900
0.036812	35.690000	0.382900
0.036822	35.690000	0.382900
0.036834	35.690000	0.384800
0.036845	35.690000	0.384800
0.036857	35.690000	0.384800
0.036868	45.270000	0.457500
0.036880	45.270000	0.457500
0.036891	45.990000	0.494400
0.036903	45.990000	0.494400
0.036914	45.990000	0.494400
0.036926	54.640000	0.596900
0.036937	54.640000	0.596900
0.036950	54.640000	0.596900
0.036960	54.640000	0.596900
0.036972	55.000000	0.601100
0.036984	55.000000	0.601100
0.036995	55.000000	0.601100
0.037007	54.930000	0.601800
0.037019	54.930000	0.601800
0.037031	54.930000	0.601800
0.037043	54.930000	0.604900
0.037054	54.930000	0.604900
0.037065	54.860000	0.597100
0.037077	54.860000	0.597100
0.037088	54.860000	0.597100
0.037101	54.860000	0.596400
0.037111	54.860000	0.596400
0.037123	54.860000	0.596400
0.037135	54.860000	0.596400
0.037146	54.860000	0.590700
0.037157	54.860000	0.590700
0.037169	54.860000	0.590700
0.037181	54.780000	0.589600
0.037192	54.780000	0.589600
0.037204	54.780000	0.589600
0.037216	54.780000	0.594600
0.037227	54.780000	0.594600
0.037239	55.000000	0.599900
0.037250	55.000000	0.599900
0.037262	55.000000	0.599900
0.037274	55.000000	0.599900
0.037285	55.000000	0.599200
0.037296	55.000000	0.599200
0.037308	55.000000	0.599200
0.037320	55.000000	0.597900
0.037331	55.000000	0.597900
0.037342	55.000000	0.597900
0.037354	55.070000	0.591100
0.037366	55.070000	0.591100
0.037377	48.990000	0.591100
0.037389	48.990000	0.583900
0.037400	48.990000	0.583900
0.037413	48.990000	0.585000
0.037424	48.990000	0.585000
0.037435	48.990000	0.585000
0.037447	48.990000	0.585000
0.037458	49.060000	0.588700
0.037471	49.060000	0.588700
0.037483	49.060000	0.588700
0.037493	48.270000	0.542400
0.037505	48.270000	0.542400
0.037517	48.270000	0.542400
0.037529	43.630000	0.519100
0.037540	43.630000	0.519100
0.037552	57.220000	0.672600
0.037563	57.220000	0.672600
0.037575	57.220000	0.672600
0.037587	57.640000	0.679200
0.037598	57.640000	0.679200
0.037610	57.640000	0.679200
0.037622	57.640000	0.679200
0.037632	57.720000	0.681500
0.037647	57.720000	0.681500
0.037656	57.720000	0.681500
0.037667	57.720000	0.679500
0.037679	57.720000	0.679500
0.037690	57.720000	0.679500
0.037702	57.640000	0.678500
0.037713	57.640000	0.678500
0.037725	57.570000	0.673600
0.037736	57.570000	0.673600
0.037748	57.570000	0.673600
0.037760	57.570000	0.673600
0.037771	57.570000	0.674500
0.037783	57.570000	0.674500
0.037795	57.570000	0.674500
0.037806	57.500000	0.676500
0.037818	57.500000	0.676500
0.037829	57.500000	0.676500
0.037841	57.570000	0.676600
0.037852	57.570000	0.676600
0.037864	57.500000	0.676600
0.037876	57.500000	0.676400
0.037887	57.500000	0.676400
0.037899	57.640000	0.675500
0.037911	57.640000	0.675500
0.037922	57.640000	0.675500
0.037935	57.640000	0.675500
0.037945	57.500000	0.676600
0.037957	57.500000	0.676600
0.037970	57.500000	0.676600
0.037980	57.570000	0.679000
0.037992	57.570000	0.679000
0.038004	57.570000	0.679000
0.038016	57.570000	0.678000
0.038027	57.570000	0.678000
0.038038	57.430000	0.679200
0.038050	57.430000	0.679200
0.038061	57.430000	0.679200
0.038073	57.500000	0.678100
0.038085	57.500000	0.678100
0.038096	57.500000	0.678100
0.038108	57.500000	0.678100
0.038119	57.360000	0.677600
0.038131	57.360000	0.677600
0.038143	57.360000	0.677600
0.038154	57.500000	0.678300
0.038166	57.500000	0.678300
0.038177	57.500000	0.678300
0.038189	57.500000	0.677000
0.038200	57.500000	0.677000
0.038212	57.360000	0.663100
0.038223	57.360000	0.663100
0.038270	57.360000	0.663100
0.038272	48.490000	0.546500
0.038281	48.490000	0.546500
0.038293	36.120000	0.446800
0.038305	36.120000	0.446800
0.038316	36.120000	0.446800
0.038363	29.960000	0.376700
0.038365	29.540000	0.370500
0.038374	29.540000	0.370500
0.038386	29.540000	0.365600
0.038398	29.540000	0.365600
0.038409	29.540000	0.365600
0.038421	45.840000	0.512500
0.038433	45.840000	0.512500
0.038444	45.840000	0.512500
0.038457	45.840000	0.512500
0.038467	40.340000	0.487000
0.038479	40.340000	0.487000
0.038495	40.340000	0.487000
0.038503	48.420000	0.581500
0.038515	48.420000	0.581500
0.038526	48.920000	0.581500
0.038539	48.920000	0.587400
0.038549	48.920000	0.587400
0.038561	48.990000	0.591200
0.038574	48.990000	0.591200
0.038585	48.990000	0.591200
0.038597	48.990000	0.591300
0.038606	48.990000	0.591300
0.038618	48.990000	0.591300
0.038629	48.990000	0.591300
0.038641	48.850000	0.586800
0.038652	48.850000	0.586800
0.038664	48.850000	0.586800
0.038676	48.850000	0.588400
0.038687	48.850000	0.588400
0.038699	48.780000	0.586500
0.038711	48.780000	0.586500
0.038722	48.780000	0.586500
0.038734	48.780000	0.584700
0.038745	48.780000	0.584700
0.038756	48.780000	0.584700
0.038768	48.780000	0.584700
0.038780	48.850000	0.586900
0.038792	48.850000	0.586900
0.038803	48.850000	0.586900
0.038815	48.850000	0.587800
0.038826	48.850000	0.587800
0.038838	48.850000	0.587800
0.038849	48.850000	0.586000
0.038861	48.850000	0.586000
0.038872	48.780000	0.587900
0.038884	48.780000	0.587900
0.038896	48.780000	0.587900
0.038908	48.780000	0.588100
0.038919	48.780000	0.588100
0.038931	48.780000	0.588100
0.038942	48.780000	0.588100
0.038954	48.780000	0.588500
0.038966	48.780000	0.588500
0.038978	48.780000	0.588500
0.038990	48.780000	0.588500
0.039002	48.780000	0.588500
0.039013	48.780000	0.588500
0.039023	48.780000	0.587800
0.039035	48.780000	0.587800
0.039047	42.910000	0.485100
0.039058	42.910000	0.485100
0.039070	42.910000	0.485100
0.039081	43.700000	0.516700
0.039093	43.700000	0.516700
0.039105	43.700000	0.516700
0.039118	43.700000	0.516700
0.039128	56.290000	0.671800
0.039139	56.290000	0.671800
0.039151	56.290000	0.671800
0.039163	57.290000	0.688000
0.039174	57.290000	0.688000
0.039186	57.430000	0.688000
0.039197	57.430000	0.689900
0.039209	57.430000	0.689900
0.039221	57.430000	0.686300
0.039232	57.430000	0.686300
0.039244	57.430000	0.686300
0.039255	57.360000	0.689000
0.039267	57.360000	0.689000
0.039278	57.360000	0.689000
0.039290	57.360000	0.689000
0.039301	57.430000	0.684400
0.039313	57.430000	0.684400
0.039325	57.430000	0.684400
0.039336	57.570000	0.695600
0.039348	57.570000	0.695600
0.039359	57.430000	0.677800
0.039372	57.430000	0.677800
0.039384	57.430000	0.677800
0.039395	57.500000	0.679800
0.039406	57.500000	0.679800
0.039420	57.500000	0.679800
0.039431	57.500000	0.681300
0.039443	57.500000	0.681300
0.039454	57.500000	0.681300
0.039466	57.500000	0.681300
0.039478	57.430000	0.676900
0.039490	57.430000	0.676900
0.039499	57.430000	0.676900
0.039511	57.360000	0.675500
0.039522	57.360000	0.675500
0.039533	57.430000	0.679600
0.039545	57.430000	0.679600
0.039557	57.430000	0.679600
0.039568	57.430000	0.677100
0.039580	57.430000	0.677100
0.039592	57.430000	0.677100
0.039603	57.500000	0.672700
0.039615	57.500000	0.672700
0.039626	57.500000	0.672700
0.039638	57.500000	0.672700
0.039649	57.360000	0.666900
0.039661	57.360000	0.666900
0.039672	57.360000	0.666900
0.039684	57.500000	0.664200
0.039696	57.500000	0.664200
0.039707	57.430000	0.668200
0.039719	57.430000	0.668200
0.039730	57.430000	0.668200
0.039743	57.290000	0.670700
0.039754	57.290000	0.670700
0.039765	57.290000	0.670700
0.039777	55.860000	0.639700
0.039789	55.860000	0.639700
0.039800	55.860000	0.639700
0.039812	55.860000	0.639700
0.039823	44.630000	0.502600
0.039835	44.630000	0.502600
0.039847	44.630000	0.502600
0.039858	49.280000	0.555600
0.039870	49.280000	0.555600
0.039881	29.890000	0.373000
0.039893	29.890000	0.373000
0.039904	29.890000	0.373000
0.039917	29.610000	0.370600
0.039927	29.610000	0.370600
0.039939	29.610000	0.370600
0.039951	29.610000	0.370600
0.039963	29.460000	0.369200
0.039974	29.460000	0.369200
0.039985	29.460000	0.369200
0.039997	45.630000	0.514500
0.040009	45.630000	0.514500
0.040020	45.130000	0.512200
0.040032	45.130000	0.512200
0.040044	45.130000	0.512200
0.040055	47.920000	0.583200
0.040066	47.920000	0.583200
0.040078	47.920000	0.583200
0.040090	48.850000	0.590500
0.040101	48.850000	0.590500
0.040113	48.850000	0.590500
0.040124	48.850000	0.590500
0.040136	48.850000	0.589300
0.040148	48.850000	0.589300
0.040159	48.850000	0.589300
0.040171	48.920000	0.591000
0.040182	48.920000	0.591000
0.040194	48.850000	0.588800
0.040205	48.850000	0.588800
0.040217	48.850000	0.588800
0.040229	48.920000	0.589000
0.040240	48.920000	0.589000
0.040252	48.920000	0.589000
0.040263	48.780000	0.585900
0.040275	48.780000	0.585900
0.040287	48.780000	0.585900
0.040298	48.780000	0.585900
0.040310	48.850000	0.592700
0.040321	48.850000	0.592700
0.040333	48.850000	0.592700
0.040344	48.850000	0.592200
0.040356	48.850000	0.592200
0.040367	48.850000	0.592200
0.040380	48.850000	0.592200
0.040392	48.850000	0.592200
0.040403	48.780000	0.593700
0.040414	48.780000	0.593700
0.040426	48.780000	0.593700
0.040440	48.850000	0.587600
0.040450	48.850000	0.587600
0.040462	48.850000	0.587600
0.040473	48.850000	0.587600
0.040484	48.920000	0.588100
0.040498	48.920000	0.588100
0.040507	48.850000	0.583500
0.040519	48.850000	0.583500
0.040532	48.850000	0.583500
0.040543	48.780000	0.584000
0.040554	48.780000	0.584000
0.040565	48.780000	0.584000
0.040577	48.850000	0.586500
0.040588	48.850000	0.586500
0.040600	48.850000	0.586500
0.040611	42.410000	0.480700
0.040623	42.410000	0.480700
0.040635	42.410000	0.480700
0.040646	42.410000	0.480700
0.040658	43.980000	0.498800
0.040669	43.980000	0.498800
0.040681	56.640000	0.671600
0.040693	56.640000	0.671600
0.040704	56.640000	0.671600
0.040716	57.070000	0.671700
0.040727	57.070000	0.671700
0.040739	57.070000	0.671700
0.040750	57.220000	0.672700
0.040762	57.220000	0.672700
0.040774	57.220000	0.672700
0.040785	57.220000	0.672700
0.040797	57.070000	0.669300
0.040808	57.070000	0.669300
0.040820	57.070000	0.669300
0.040832	59.930000	0.675400
0.040844	59.930000	0.675400
0.040856	59.360000	0.660200
0.040868	59.360000	0.660200
0.040878	59.360000	0.660200
0.040889	56.430000	0.627800
0.040901	56.430000	0.627800
0.040912	56.430000	0.627800
0.040924	52.280000	0.589900
0.040935	52.280000	0.589900
0.040947	52.280000	0.589900
0.040959	52.280000	0.589900
0.040970	48.700000	0.589800
0.040982	48.700000	0.589800
0.040994	33.540000	0.412600
0.041005	33.540000	0.412600
0.041016	33.540000	0.412600
0.041028	25.530000	0.315300
0.041040	25.530000	0.315300
0.041052	25.530000	0.315300
0.041063	19.240000	0.242500
0.041075	19.240000	0.242500
0.041086	19.240000	0.242500
0.041098	12.660000	0.158300
0.041109	12.660000	0.158300
0.041129	12.660000	0.158300
0.041134	12.660000	0.158300
0.041144	4.220000	0.068400
0.041156	4.220000	0.068400
0.041168	21.380000	0.281500
0.041181	21.380000	0.281500
0.041193	21.380000	0.281500
0.041238	16.880000	0.209600
0.041239	18.380000	0.228300
0.041249	18.380000	0.228300
0.041260	18.380000	0.228300
0.041271	18.380000	0.228300
0.041283	4.290000	0.067200
0.041295	4.290000	0.067200
0.041306	4.290000	0.067200
0.041318	20.520000	0.255900
0.041329	20.520000	0.255900
0.041341	19.520000	0.242600
0.041352	19.520000	0.242600
0.041364	19.520000	0.242600
0.041376	19.090000	0.236700
0.041387	19.090000	0.236700
0.041399	19.090000	0.236700
0.041411	19.240000	0.236400
0.041422	19.240000	0.236400
0.041434	19.240000	0.236400
0.041445	19.240000	0.236400
0.041457	19.160000	0.236100
0.041469	19.160000	0.236100
0.041480	19.160000	0.236100
0.041492	19.160000	0.236100
0.041503	19.160000	0.236100
0.041515	17.730000	0.219300
0.041526	17.730000	0.219300
0.041538	17.730000	0.219300
0.041549	15.870000	0.196500
0.041561	15.870000	0.196500
0.041573	15.870000	0.196500
0.041584	13.370000	0.166300
0.041596	13.370000	0.166300
0.041608	13.370000	0.166300
0.041620	13.370000	0.166300
0.041631	12.370000	0.156100
0.041643	12.370000	0.156100
0.041657	12.300000	0.155700
0.041668	12.300000	0.155700
0.041680	12.300000	0.155700
0.041689	6.860000	0.105100
0.041702	6.860000	0.105100
0.041713	6.860000	0.105100
0.041725	16.370000	0.230400
0.041739	16.370000	0.230400
0.041759	16.370000	0.230400
0.041798	13.230000	0.171300
0.041848	18.590000	0.231200
0.041850	18.590000	0.225200
0.041853	18.590000	0.225200
0.041863	18.520000	0.223600
0.041875	18.520000	0.223600
0.041887	18.520000	0.223600
0.041898	4.500000	0.069600
0.041909	4.500000	0.069600
0.041921	4.500000	0.069600
0.041932	4.570000	0.069600
0.041946	4.570000	0.069600
0.041956	4.570000	0.069600
0.041969	4.500000	0.069300
0.041979	4.500000	0.069300
0.041991	4.500000	0.069300
0.042003	18.380000	0.248700
0.042014	18.380000	0.248700
0.042027	18.380000	0.248700
0.042041	12.370000	0.159100
0.042050	12.370000	0.159100
0.042062	12.370000	0.159100
0.042073	10.940000	0.147500
0.042083	10.940000	0.147500
0.042096	10.940000	0.147500
0.042110	10.220000	0.135500
0.042121	10.220000	0.135500
0.042138	4.500000	0.070100
0.042144	4.500000	0.070100
0.042155	4.500000	0.070100
0.042165	4.500000	0.070100
0.042176	4.500000	0.070000
0.042188	4.500000	0.070000
0.042200	4.500000	0.070000
0.042211	4.500000	0.069800
0.042222	4.500000	0.069800
0.042236	4.500000	0.069800
0.042246	4.500000	0.069400
0.042258	4.500000	0.069400
0.042271	4.500000	0.069400
0.042280	4.500000	0.069400
0.042292	4.500000	0.069400
0.042303	4.500000	0.069400
0.042315	4.500000	0.069800
0.042326	4.500000	0.069800
0.042338	4.500000	0.069800
0.042350	4.500000	0.069600
0.042362	4.500000	0.069600
0.042373	4.500000	0.069600
0.042387	4.500000	0.069400
0.042400	4.500000	0.069400
0.042408	4.500000	0.069400
0.042422	4.500000	0.069600
0.042434	4.500000	0.069600
0.042442	4.500000	0.069600
0.042455	4.500000	0.069600
0.042469	4.500000	0.069300
0.042479	4.500000	0.069300
0.042489	4.430000	0.069500
0.042503	4.430000	0.069500
0.042512	4.430000	0.069500
0.042526	4.500000	0.070000
0.042537	4.500000	0.070000
0.042547	4.500000	0.070000
0.042560	4.430000	0.069500
0.042572	4.430000	0.069500
0.042583	4.430000	0.069500
0.042594	4.500000	0.069700
0.042606	4.500000	0.069700
0.042616	4.500000	0.069700
0.042629	4.500000	0.069400
0.042639	4.500000	0.069400
0.042650	4.500000	0.069400
0.042662	4.500000	0.069700
0.042674	4.500000	0.069700
0.042685	4.500000	0.069700
0.042697	4.500000	0.069600
0.042709	4.500000	0.069600
0.042720	4.500000	0.069600
0.042731	19.880000	0.125900
0.042743	19.880000	0.125900
0.042754	19.880000	0.125900
0.042766	19.880000	0.125900
0.042778	18.380000	0.119100
0.042789	18.380000	0.119100
0.042801	15.370000	0.104600
0.042813	15.370000	0.104600
0.042824	15.370000	0.104600
0.042836	15.440000	0.104600
0.042847	15.440000	0.104600
0.042859	15.440000	0.104600
0.042871	15.440000	0.104600
0.042882	15.440000	0.104600
0.042894	15.440000	0.104600
0.042905	15.300000	0.103900
0.042917	15.300000	0.103900
0.042929	15.300000	0.103900
0.042940	15.300000	0.103900
0.042952	15.370000	0.104100
0.042963	15.370000	0.104100
0.042975	15.300000	0.104200
0.042986	15.300000	0.104200
0.042998	15.300000	0.104200
0.043009	15.370000	0.104400
0.043021	15.370000	0.104400
0.043032	15.370000	0.104400
0.043044	15.370000	0.104100
0.043056	15.370000	0.104100
0.043067	15.370000	0.104100
0.043079	15.370000	0.105100
0.043091	15.370000	0.105100
0.043102	15.370000	0.105100
0.043116	15.370000	0.104500
0.043126	15.370000	0.104500
0.043138	15.370000	0.104500
0.043150	15.440000	0.104200
0.043161	15.440000	0.104200
0.043172	15.440000	0.104200
0.043183	18.160000	0.146400
0.043195	18.160000	0.146400
0.043206	18.160000	0.146400
0.043218	52.780000	0.531800
0.043229	52.780000	0.531800
0.043241	52.780000	0.531800
0.043252	14.440000	0.093600
0.043264	14.440000	0.093600
0.043276	14.440000	0.093600
0.043287	35.690000	0.344900
0.043299	35.690000	0.344900
0.043310	35.690000	0.344900
0.043322	53.350000	0.538500
0.043334	53.350000	0.538500
0.043345	53.350000	0.538500
0.043358	53.350000	0.543900
0.043370	53.350000	0.543900
0.043381	53.350000	0.543900
0.043392	53.420000	0.541900
0.043404	53.420000	0.541900
0.043415	53.420000	0.541900
0.043426	52.350000	0.540800
0.043438	52.350000	0.540800
0.043450	52.350000	0.540800
0.043461	1876.680000	8.704800
0.043472	1876.680000	8.704800
0.043484	1876.680000	8.704800
0.043496	2120.800000	9.201200
0.043507	2120.800000	9.201200
0.043523	2120.800000	9.201200
0.043530	2095.120000	9.077500
0.043542	2095.120000	9.077500
0.043554	2095.120000	9.077500
0.043565	2092.550000	9.063000
0.043577	2092.550000	9.063000
0.043588	2092.550000	9.063000
0.043600	2092.550000	9.063000
0.043611	2089.610000	9.055000
0.043623	2089.610000	9.055000
0.043635	2102.490000	9.121500
0.043646	2102.490000	9.121500
0.043660	2102.490000	9.121500
0.043670	2093.690000	9.093300
0.043681	2093.690000	9.093300
0.043694	2093.690000	9.093300
0.043704	2081.600000	9.046800
0.043716	2081.600000	9.046800
0.043727	2081.600000	9.046800
0.043739	2071.230000	8.996600
0.043750	2071.230000	8.996600
0.043762	2071.230000	8.996600
0.043773	2070.870000	8.994100
0.043785	2070.870000	8.994100
0.043797	2070.870000	8.994100
0.043808	2072.810000	8.994900
0.043820	2072.810000	8.994900
0.043831	2072.810000	8.994900
0.043843	2074.090000	8.995800
0.043854	2074.090000	8.995800
0.043866	2074.090000	8.995800
0.043878	2075.090000	8.995600
0.043889	2075.090000	8.995600
0.043902	2075.090000	8.995600
0.043913	2076.530000	8.995500
0.043925	2076.530000	8.995500
0.043938	2076.530000	8.995500
0.043949	2075.020000	8.992100
0.043960	2075.020000	8.992100
0.043972	2075.020000	8.992100
0.043985	2074.740000	8.990100
0.043997	2074.740000	8.990100
0.044007	2074.740000	8.990100
0.044021	2074.740000	8.988300
0.044028	2074.740000	8.988300
0.044040	2074.740000	8.988300
0.044051	2074.810000	8.986900
0.044063	2074.810000	8.986900
0.044079	2074.810000	8.986900
0.044086	2074.810000	8.986900
0.044098	2074.520000	8.984900
0.044110	2074.520000	8.984900
0.044121	2074.520000	8.984900
0.044133	2074.520000	8.984900
0.044144	2074.520000	8.984900
0.044156	2076.170000	8.985300
0.044168	2076.170000	8.985300
0.044179	2076.170000	8.985300
0.044190	2075.520000	8.983000
0.044202	2075.520000	8.983000
0.044214	2075.520000	8.983000
0.044225	2070.590000	8.972400
0.044237	2070.590000	8.972400
0.044249	2075.170000	8.996400
0.044260	2075.170000	8.996400
0.044272	2075.170000	8.996400
0.044284	2075.170000	8.996400
0.044295	2106.280000	9.138200
0.044307	2106.280000	9.138200
0.044318	2106.280000	9.138200
0.044330	2103.420000	9.127400
0.044341	2103.420000	9.127400
0.044353	2103.420000	9.127400
0.044364	2102.920000	9.129100
0.044376	2102.920000	9.129100
0.044388	2102.920000	9.129100
0.044399	2103.560000	9.128900
0.044411	2103.560000	9.128900
0.044422	2103.560000	9.128900
0.044434	2104.130000	9.126200
0.044445	2104.130000	9.126200
0.044457	2104.130000	9.126200
0.044469	2104.060000	9.124200
0.044481	2104.060000	9.124200
0.044492	2104.060000	9.124200
0.044503	2101.060000	9.117600
0.044515	2101.060000	9.117600
0.044528	2101.060000	9.117600
0.044538	2104.640000	9.121700
0.044550	2104.640000	9.121700
0.044561	2104.640000	9.121700
0.044577	2102.780000	9.116300
0.044586	2102.780000	9.116300
0.044597	2102.780000	9.116300
0.044609	2100.270000	9.109400
0.044620	2100.270000	9.109400
0.044632	2100.270000	9.109400
0.044642	2098.700000	9.105100
0.044654	2098.700000	9.105100
0.044667	2098.700000	9.105100
0.044677	2095.480000	9.097300
0.044690	2095.480000	9.097300
0.044702	2095.480000	9.097300
0.044713	2098.480000	9.101700
0.044725	2098.480000	9.101700
0.044737	2099.410000	9.103700
0.044746	2099.410000	9.103700
0.044758	2099.410000	9.103700
0.044770	2099.410000	9.103700
0.044781	2096.620000	9.096700
0.044793	2096.620000	9.096700
0.044804	2096.620000	9.096700
0.044816	2096.770000	9.095300
0.044827	2096.770000	9.095300
0.044839	2096.770000	9.095300
0.044851	2093.980000	9.088800
0.044863	2093.980000	9.088800
0.044877	2093.980000	9.088800
0.044890	2093.480000	9.086800
0.044899	2093.480000	9.086800
0.044908	2093.480000	9.086800
0.044920	2095.770000	9.088500
0.044931	2095.770000	9.088500
0.044943	2095.770000	9.088500
0.044955	2094.550000	9.084600
0.044966	2094.550000	9.084600
0.044978	2094.550000	9.084600
0.044990	2095.620000	9.085500
0.045001	2095.620000	9.085500
0.045013	2095.620000	9.085500
0.045024	2086.750000	9.051400
0.045036	2086.750000	9.051400
0.045047	2086.750000	9.051400
0.045060	2086.750000	9.051400
0.045082	2086.750000	9.052800
0.045084	2086.750000	9.052800
0.045094	2053.710000	8.927300
0.045105	2053.710000	8.927300
0.045117	2053.710000	8.927300
0.045128	2045.700000	8.908500
0.045210	2045.700000	8.908500
0.045215	2061.150000	8.979900
0.045227	2067.440000	9.009500
0.045233	2067.440000	9.009500
0.045245	2067.440000	9.009500
0.045256	2067.440000	9.009500
0.045267	2041.620000	8.882300
0.045279	2041.620000	8.882300
0.045291	2041.620000	8.882300
0.045302	2041.760000	8.879000
0.045314	2041.760000	8.879000
0.045325	2041.760000	8.879000
0.045337	2046.630000	8.886000
0.045348	2046.630000	8.886000
0.045360	2046.630000	8.886000
0.045372	2048.060000	8.887300
0.045383	2048.060000	8.887300
0.045395	2048.060000	8.887300
0.045406	2054.420000	8.898100
0.045418	2054.420000	8.898100
0.045430	2054.420000	8.898100
0.045441	2053.640000	8.890000
0.045453	2053.640000	8.890000
0.045465	2053.640000	8.890000
0.045476	2054.570000	8.893000
0.045487	2054.570000	8.893000
0.045499	2054.570000	8.893000
0.045511	2053.210000	8.890800
0.045522	2053.210000	8.890800
0.045536	2049.060000	8.890800
0.045546	2049.060000	8.880700
0.045557	2049.060000	8.880700
0.045569	2049.060000	8.880700
0.045580	2046.840000	8.876000
0.045591	2046.840000	8.876000
0.045603	2046.840000	8.876000
0.045615	2045.130000	8.871800
0.045626	2045.130000	8.871800
0.045638	2045.130000	8.871800
0.045649	2043.270000	8.866200
0.045661	2043.270000	8.866200
0.045672	2043.270000	8.866200
0.045684	2048.560000	8.875000
0.045696	2048.560000	8.875000
0.045708	2049.990000	8.876200
0.045719	2049.990000	8.876200
0.045731	2049.990000	8.876200
0.045742	2049.990000	8.876200
0.045754	2046.700000	8.868300
0.045766	2046.700000	8.868300
0.045777	2046.700000	8.868300
0.045788	2043.410000	8.859100
0.045800	2043.410000	8.859100
0.045812	2043.410000	8.859100
0.045823	2042.770000	8.858600
0.045835	2042.770000	8.858600
0.045846	2042.770000	8.858600
0.045857	2042.050000	8.855100
0.045869	2042.050000	8.855100
0.045881	2042.050000	8.855100
0.045892	2039.400000	8.849200
0.045904	2039.400000	8.849200
0.045916	2039.400000	8.849200
0.045928	2035.610000	8.841100
0.045939	2035.610000	8.841100
0.045950	2035.610000	8.841100
0.045962	2028.890000	8.827100
0.045974	2028.890000	8.827100
0.045985	2028.890000	8.827100
0.045997	2023.170000	8.813900
0.046009	2023.170000	8.813900
0.046020	2023.670000	8.813900
0.046032	2023.670000	8.815900
0.046045	2023.670000	8.815900
0.046055	2023.670000	8.815900
0.046067	2019.590000	8.806500
0.046078	2019.590000	8.806500
0.046090	2019.590000	8.806500
0.046101	2018.880000	8.803300
0.046114	2018.880000	8.803300
0.046125	2018.880000	8.803300
0.046136	2024.600000	8.813100
0.046148	2024.600000	8.813100
0.046159	2024.600000	8.813100
0.046171	2027.750000	8.817200
0.046182	2027.750000	8.817200
0.046194	2029.180000	8.818200
0.046206	2029.180000	8.818200
0.046217	2029.180000	8.818200
0.046229	2029.180000	8.818200
0.046240	2032.680000	8.823300
0.046252	2032.680000	8.823300
0.046263	2032.680000	8.823300
0.046275	2035.180000	8.827300
0.046287	2035.180000	8.827300
0.046298	2035.180000	8.827300
0.046310	2040.550000	8.834900
0.046322	2040.550000	8.834900
0.046333	2040.550000	8.834900
0.046345	2037.690000	8.829100
0.046356	2037.690000	8.829100
0.046368	2039.120000	8.830500
0.046380	2039.120000	8.830500
0.046391	2039.120000	8.830500
0.046403	2039.120000	8.830500
0.046414	2038.040000	8.826800
0.046426	2038.040000	8.826800
0.046437	2038.040000	8.826800
0.046449	2035.260000	8.820200
0.046461	2035.260000	8.820200
0.046473	2035.260000	8.820200
0.046484	2039.550000	8.827100
0.046496	2039.550000	8.827100
0.046507	2039.550000	8.827100
0.046519	2036.970000	8.819100
0.046530	2036.970000	8.819100
0.046542	2036.970000	8.819100
0.046553	2035.760000	8.816900
0.046565	2035.760000	8.816900
0.046576	2035.760000	8.816900
0.046588	2033.680000	8.812600
0.046600	2033.680000	8.812600
0.046612	2033.680000	8.812600
0.046623	2033.250000	8.808900
0.046635	2033.250000	8.808900
0.046646	2033.250000	8.808900
0.046658	2033.680000	8.809200
0.046670	2033.680000	8.809200
0.046681	2033.820000	8.808800
0.046693	2033.820000	8.808800
0.046704	2033.820000	8.808800
0.046716	2033.820000	8.808800
0.046727	2053.140000	8.895900
0.046739	2053.140000	8.895900
0.046750	2053.140000	8.895900
0.046762	2063.290000	8.943300
0.046774	2063.290000	8.943300
0.046785	2063.290000	8.943300
0.046797	2066.870000	8.964400
0.046809	2066.870000	8.964400
0.046820	2066.870000	8.964400
0.046831	2064.150000	8.958800
0.046843	2064.150000	8.958800
0.046855	2060.430000	8.950100
0.046867	2060.430000	8.950100
0.046878	2060.430000	8.950100
0.046889	2060.430000	8.950100
0.046901	2057.360000	8.942600
0.046912	2057.360000	8.942600
0.046924	2057.360000	8.942600
0.046935	2056.570000	8.940100
0.046947	2056.570000	8.940100
0.046959	2056.570000	8.940100
0.046970	2055.850000	8.936700
0.046982	2055.850000	8.936700
0.046993	2056.140000	8.936400
0.047005	2056.140000	8.936400
0.047016	2056.140000	8.936400
0.047028	2056.140000	8.936400
0.047040	2061.580000	8.945600
0.047051	2061.580000	8.945600
0.047063	2061.580000	8.945600
0.047074	2052.920000	8.927000
0.047086	2052.920000	8.927000
0.047098	2052.920000	8.927000
0.047109	2056.210000	8.932000
0.047121	2056.210000	8.932000
0.047133	2056.210000	8.932000
0.047146	2056.000000	8.930000
0.047160	2056.000000	8.930000
0.047167	2057.070000	8.930600
0.047182	2057.070000	8.930600
0.047193	2057.070000	8.930600
0.047204	2059.570000	8.933800
0.047217	2059.570000	8.933800
0.047230	2059.570000	8.933800
0.047242	2057.000000	8.927200
0.047251	2057.000000	8.927200
0.047259	2057.000000	8.927200
0.047271	2057.000000	8.927200
0.047283	2057.070000	8.925700
0.047294	2057.070000	8.925700
0.047306	2057.070000	8.925700
0.047317	2053.640000	8.918000
0.047329	2053.640000	8.918000
0.047341	2056.930000	8.922000
0.047352	2056.930000	8.922000
0.047364	2056.930000	8.922000
0.047375	2056.930000	8.922000
0.047389	2058.570000	8.924000
0.047398	2058.570000	8.924000
0.047410	2058.570000	8.924000
0.047422	2058.210000	8.922800
0.047434	2058.210000	8.922800
0.047445	2058.210000	8.922800
0.047456	2056.500000	8.909400
0.047468	2056.500000	8.909400
0.047479	2055.710000	8.905900
0.047491	2055.710000	8.905900
0.047502	2055.710000	8.905900
0.047514	2055.710000	8.905900
0.047526	2049.270000	8.870900
0.047537	2049.270000	8.870900
0.047550	2049.270000	8.870900
0.047561	2031.890000	8.791200
0.047572	2031.890000	8.791200
0.047583	2031.890000	8.791200
0.047595	2029.960000	8.786300
0.047607	2029.960000	8.786300
0.047618	2029.960000	8.786300
0.047630	2028.250000	8.781500
0.047642	2028.250000	8.781500
0.047653	2041.910000	8.847100
0.047665	2041.910000	8.847100
0.047677	2041.910000	8.847100
0.047688	2041.910000	8.847100
0.047700	2042.550000	8.850100
0.047711	2042.550000	8.850100
0.047723	2042.550000	8.850100
0.047734	2021.590000	8.751900
0.047747	2021.590000	8.751900
0.047759	2021.590000	8.751900
0.047770	2019.730000	8.744200
0.047781	2019.730000	8.744200
0.047792	2019.730000	8.744200
0.047804	2018.590000	8.741400
0.047815	2018.590000	8.741400
0.047827	2015.300000	8.733700
0.047839	2015.300000	8.733700
0.047850	2015.300000	8.733700
0.047861	2015.300000	8.733700
0.047873	2014.010000	8.729200
0.047885	2014.010000	8.729200
0.047897	2014.010000	8.729200
0.047908	2008.000000	8.717200
0.047920	2008.000000	8.717200
0.047931	2008.000000	8.717200
0.047943	2008.000000	8.717200
0.047954	2008.000000	8.717200
0.047966	2008.000000	8.717200
0.047978	2010.940000	8.719900
0.047989	2010.940000	8.719900
0.048000	2010.940000	8.719900
0.048012	2009.290000	8.715600
0.048023	2009.290000	8.715600
0.048035	2009.290000	8.715600
0.048047	2010.580000	8.717300
0.048058	2010.580000	8.717300
0.048070	2010.580000	8.717300
0.048081	2011.150000	8.717200
0.048093	2011.150000	8.717200
0.048107	2011.150000	8.717200
0.048117	2010.580000	8.714600
0.048128	2010.580000	8.714600
0.048139	2016.800000	8.742700
0.048151	2016.800000	8.742700
0.048163	2016.800000	8.742700
0.048174	2016.800000	8.742700
0.048186	2009.150000	8.709000
0.048197	2009.150000	8.709000
0.048209	2009.150000	8.709000
0.048221	2006.140000	8.702600
0.048232	2006.140000	8.702600
0.048244	2006.140000	8.702600
0.048255	2012.370000	8.718200
0.048266	2012.370000	8.718200
0.048278	2012.370000	8.718200
0.048290	2005.930000	8.698000
0.048301	2005.930000	8.698000
0.048313	2013.010000	8.712000
0.048324	2013.010000	8.712000
0.048336	2013.010000	8.712000
0.048348	2013.010000	8.712000
0.048359	2018.800000	8.732700
0.048371	2018.800000	8.732700
0.048382	2018.800000	8.732700
0.048394	2011.790000	8.707200
0.048405	2011.790000	8.707200
0.048417	2011.790000	8.707200
0.048429	2013.440000	8.709300
0.048440	2013.440000	8.709300
0.048452	2013.440000	8.709300
0.048463	2013.870000	8.708300
0.048475	2013.870000	8.708300
0.048487	2014.510000	8.716100
0.048498	2014.510000	8.716100
0.048510	2014.510000	8.716100
0.048521	2014.510000	8.716100
0.048533	2008.650000	8.696800
0.048544	2008.650000	8.696800
0.048556	2008.650000	8.696800
0.048568	2003.500000	8.685400
0.048579	2003.500000	8.685400
0.048591	2003.500000	8.685400
0.048602	2010.150000	8.713500
0.048614	2010.150000	8.713500
0.048625	1995.420000	8.668700
0.048637	1995.420000	8.668700
0.048649	1995.420000	8.668700
0.048660	1995.420000	8.668700
0.048672	1995.420000	8.668700
0.048683	1995.420000	8.668700
0.048695	1995.420000	8.668700
0.048707	1995.700000	8.667000
0.048718	1995.700000	8.667000
0.048731	1995.700000	8.667000
0.048743	1998.280000	8.670300
0.048788	1998.280000	8.670300
0.048826	1996.420000	8.665000
0.048828	1993.630000	8.659100
0.048834	1993.630000	8.659100
0.048883	1998.560000	8.666700
0.048885	1994.200000	8.657700
0.048892	1994.200000	8.657700
0.048903	1994.200000	8.657700
0.048915	1994.560000	8.656600
0.048927	1994.560000	8.656600
0.048938	1992.630000	8.656600
0.048950	1992.630000	8.652100
0.048961	1992.630000	8.652100
0.048973	1996.130000	8.656600
0.048996	1996.130000	8.656600
0.048998	1996.130000	8.656600
0.049007	1996.130000	8.656600
0.049019	2001.780000	8.666900
0.049031	2001.780000	8.666900
0.049042	2001.780000	8.666900
0.049054	2000.420000	8.663900
0.049181	2000.420000	8.663900
0.049184	1998.420000	8.656000
0.049193	2000.780000	8.659300
0.049204	2000.780000	8.659300
0.049216	2000.780000	8.659300
0.049227	1999.990000	8.656400
0.049239	1999.990000	8.656400
0.049251	1999.990000	8.656400
0.049262	2000.570000	8.656300
0.049274	2000.570000	8.656300
0.049287	2003.000000	8.659300
0.049297	2003.000000	8.659300
0.049309	2003.000000	8.659300
0.049320	2003.000000	8.659300
0.049331	1999.060000	8.651000
0.049343	1999.060000	8.651000
0.049354	1999.060000	8.651000
0.049366	2000.920000	8.653000
0.049378	2000.920000	8.653000
0.049389	2000.920000	8.653000
0.049401	2000.920000	8.653000
0.049412	2000.920000	8.653000
0.049424	2000.920000	8.653000
0.049436	1994.200000	8.639000
0.049447	1994.200000	8.639000
0.049459	1986.900000	8.623500
0.049482	1986.900000	8.623500
0.049520	1986.900000	8.623500
0.049557	2007.930000	8.715300
0.049559	2012.370000	8.741700
0.049564	2012.370000	8.741700
0.049574	2016.520000	8.769400
0.049586	2016.520000	8.769400
0.049597	2019.520000	8.775100
0.049613	2019.520000	8.775100
0.049624	2019.520000	8.775100
0.049633	2019.520000	8.775100
0.049646	2025.600000	8.786100
0.049657	2025.600000	8.786100
0.049668	2025.600000	8.786100
0.049679	2029.030000	8.790300
0.049691	2029.030000	8.790300
0.049702	2029.030000	8.790300
0.049714	2033.040000	8.797100
0.049725	2033.040000	8.797100
0.049737	2033.040000	8.797100
0.049748	2025.380000	8.781500
0.049760	2025.380000	8.781500
0.049772	2013.800000	8.759300
0.049783	2013.800000	8.759300
0.049795	2013.800000	8.759300
0.049806	2013.800000	8.759300
0.049818	2010.790000	8.753200
0.049829	2010.790000	8.753200
0.049841	2010.790000	8.753200
0.049853	2009.510000	8.749300
0.049864	2009.510000	8.749300
0.049876	2009.510000	8.749300
0.049888	2004.280000	8.738400
0.049899	2004.280000	8.738400
0.049910	2004.280000	8.738400
0.049922	2010.720000	8.748800
0.049934	2010.720000	8.748800
0.049946	2017.370000	8.758200
0.049957	2017.370000	8.758200
0.049968	2017.370000	8.758200
0.049980	2017.370000	8.758200
0.049994	2019.020000	8.760200
0.050003	2019.020000	8.760200
0.050015	2019.020000	8.760200
0.050026	2019.590000	8.759300
0.050038	2019.590000	8.759300
0.050049	2019.590000	8.759300
0.050061	2020.810000	8.761500
0.050074	2020.810000	8.761500
0.050084	2022.880000	8.763100
0.050096	2022.880000	8.763100
0.050108	2022.880000	8.763100
0.050119	2022.880000	8.763100
0.050131	2022.880000	8.763100
0.050143	2022.880000	8.763100
0.050155	2022.880000	8.763100
0.050165	2024.670000	8.764200
0.050177	2024.670000	8.764200
0.050188	2024.670000	8.764200
0.050200	2021.520000	8.756800
0.050212	2021.520000	8.756800
0.050223	2021.520000	8.756800
0.050235	2020.380000	8.754900
0.050246	2020.380000	8.754900
0.050258	2013.940000	8.723200
0.050270	2013.940000	8.723200
0.050281	2013.940000	8.723200
0.050292	2013.940000	8.723200
0.050304	2000.640000	8.664200
0.050316	2000.640000	8.664200
0.050327	2000.640000	8.664200
0.050339	1993.340000	8.625900
0.050350	1993.340000	8.625900
0.050362	1993.340000	8.625900
0.050374	1992.770000	8.624100
0.050385	1992.770000	8.624100
0.050397	1992.770000	8.624100
0.050409	1991.770000	8.621900
0.050420	1991.770000	8.621900
0.050431	2011.580000	8.722100
0.050443	2011.580000	8.722100
0.050454	2011.580000	8.722100
0.050466	2011.580000	8.722100
0.050478	2009.430000	8.715500
0.050489	2009.430000	8.715500
0.050501	2009.430000	8.715500
0.050513	1974.740000	8.567800
0.050524	1974.740000	8.567800
0.050536	1974.740000	8.567800
0.050547	1974.600000	8.566200
0.050559	1974.600000	8.566200
0.050570	1974.820000	8.567500
0.050582	1974.820000	8.567500
0.050594	1974.820000	8.567500
0.050605	1978.750000	8.573200
0.050617	1978.750000	8.573200
0.050629	1978.750000	8.573200
0.050641	1978.750000	8.573200
0.050652	1977.390000	8.569400
0.050663	1977.390000	8.569400
0.050676	1977.390000	8.569400
0.050688	1979.820000	8.572700
0.050700	1979.820000	8.572700
0.050712	1979.820000	8.572700
0.050722	1980.320000	8.572100
0.050735	1980.320000	8.572100
0.050747	1978.820000	8.569400
0.050758	1978.820000	8.569400
0.050769	1978.820000	8.569400
0.050779	1978.820000	8.569400
0.050790	1974.530000	8.557700
0.050802	1974.530000	8.557700
0.050813	1974.530000	8.557700
0.050825	1977.890000	8.564800
0.050837	1977.890000	8.564800
0.050848	1977.890000	8.564800
0.050860	1977.890000	8.564800
0.050871	1977.890000	8.564800
0.050883	1975.100000	8.564800
0.050894	1975.100000	8.557300
0.050906	1975.100000	8.557300
0.050918	1974.890000	8.555100
0.050929	1974.890000	8.555100
0.050941	1974.890000	8.555100
0.050952	1974.890000	8.555100
0.050964	1973.890000	8.553400
0.050975	1973.890000	8.553400
0.050987	1973.890000	8.553400
0.050999	1968.660000	8.541200
0.051010	1968.660000	8.541200
0.051022	1968.660000	8.541200
0.051033	1971.960000	8.546700
0.051045	1971.960000	8.546700
0.051056	1994.410000	8.637400
0.051068	1994.410000	8.637400
0.051080	1994.410000	8.637400
0.051092	2005.360000	8.687000
0.051103	2005.360000	8.687000
0.051114	2005.360000	8.687000
0.051126	2005.360000	8.687000
0.051137	2011.370000	8.710100
0.051149	2011.370000	8.710100
0.051161	2011.370000	8.710100
0.051172	2011.220000	8.709700
0.051184	2011.220000	8.709700
0.051195	2011.220000	8.709700
0.051207	2010.510000	8.707200
0.051219	2010.510000	8.707200
0.051231	2009.510000	8.704500
0.051242	2009.510000	8.704500
0.051254	2009.510000	8.704500
0.051265	2009.510000	8.704500
0.051277	2007.930000	8.699500
0.051288	2007.930000	8.699500
0.051300	2007.930000	8.699500
0.051312	2003.500000	8.689600
0.051323	2003.500000	8.689600
0.051335	2003.500000	8.689600
0.051346	2004.070000	8.689400
0.051358	2004.070000	8.689400
0.051369	2002.350000	8.689400
0.051381	2002.350000	8.685100
0.051393	2002.350000	8.685100
0.051404	2002.500000	8.684600
0.051416	2002.500000	8.684600
0.051427	2002.500000	8.684600
0.051439	2002.500000	8.684600
0.051451	1999.990000	8.678500
0.051462	1999.990000	8.678500
0.051474	1999.990000	8.678500
0.051485	1997.420000	8.672200
0.051497	1997.420000	8.672200
0.051508	1997.420000	8.672200
0.051520	1996.770000	8.669700
0.051531	1996.770000	8.669700
0.051543	1999.280000	8.673000
0.051555	1999.280000	8.673000
0.051566	1999.280000	8.673000
0.051578	1999.280000	8.673000
0.051589	1999.280000	8.673000
0.051601	1999.280000	8.673000
0.051613	1999.280000	8.673000
0.051624	1998.780000	8.669900
0.051636	1998.780000	8.669900
0.051647	1998.780000	8.669900
0.051659	1977.530000	8.570000
0.051671	1977.530000	8.570000
0.051682	1977.530000	8.570000
0.051694	1981.680000	8.584500
0.051705	1981.680000	8.584500
0.051717	1980.900000	8.574500
0.051728	1980.900000	8.574500
0.051740	1980.900000	8.574500
0.051751	1980.900000	8.574500
0.051763	1976.180000	8.562400
0.051775	1976.180000	8.562400
0.051786	1976.180000	8.562400
0.051798	1962.080000	8.504800
0.051809	1962.080000	8.504800
0.051821	1962.080000	8.504800
0.051833	1952.500000	8.485000
0.051844	1952.500000	8.485000
0.051856	1946.560000	8.474500
0.051867	1946.560000	8.474500
0.051879	1946.560000	8.474500
0.051890	1943.420000	8.467700
0.051902	1943.420000	8.467700
0.051914	1943.420000	8.467700
0.051925	1943.420000	8.467700
0.051937	1945.130000	8.470300
0.051948	1945.130000	8.470300
0.051960	1945.130000	8.470300
0.051971	1943.130000	8.465100
0.051983	1943.130000	8.465100
0.051995	1943.130000	8.465100
0.052006	1944.490000	8.463600
0.052018	1944.490000	8.463600
0.052029	1957.150000	8.489300
0.052041	1957.150000	8.489300
0.052053	1957.150000	8.489300
0.052064	1964.590000	8.501800
0.052076	1964.590000	8.501800
0.052087	1964.590000	8.501800
0.052099	1964.590000	8.501800
0.052110	1966.880000	8.504100
0.052122	1966.880000	8.504100
0.052134	1966.880000	8.504100
0.052145	1963.230000	8.495100
0.052157	1963.230000	8.495100
0.052168	1963.230000	8.495100
0.052180	1962.230000	8.494100
0.052192	1962.230000	8.494100
0.052203	1960.800000	8.490300
0.052215	1960.800000	8.490300
0.052226	1960.800000	8.490300
0.052238	1960.800000	8.490300
0.052249	1965.450000	8.498600
0.052261	1965.450000	8.498600
0.052272	1965.450000	8.498600
0.052284	1964.730000	8.495600
0.052296	1964.730000	8.495600
0.052307	1964.730000	8.495600
0.052319	1964.730000	8.495600
0.052330	1964.730000	8.495600
0.052342	1962.370000	8.490200
0.052354	1962.370000	8.490200
0.052365	1962.370000	8.490200
0.052377	1960.230000	8.483600
0.052388	1960.230000	8.483600
0.052400	1960.230000	8.483600
0.052411	1960.230000	8.483600
0.052423	1954.070000	8.470300
0.052434	1954.070000	8.470300
0.052446	1954.070000	8.470300
0.052458	1957.650000	8.477700
0.052469	1957.650000	8.477700
0.052481	1957.650000	8.477700
0.052493	1958.870000	8.479000
0.052504	1958.870000	8.479000
0.052516	1957.150000	8.474200
0.052527	1957.150000	8.474200
0.052539	1957.150000	8.474200
0.052550	1958.870000	8.476100
0.052562	1958.870000	8.476100
0.052574	1958.870000	8.476100
0.052585	1958.870000	8.476100
0.052597	1958.150000	8.474300
0.052608	1958.150000	8.474300
0.052620	1958.150000	8.474300
0.052631	26.390000	0.329600
0.052643	26.390000	0.329600
0.052655	26.390000	0.329600
0.052666	26.530000	0.329300
0.052678	26.530000	0.329300
0.052689	26.530000	0.332400
0.052701	26.530000	0.332400
0.052713	26.530000	0.332400
0.052724	26.530000	0.325100
0.052736	26.530000	0.325100
0.052747	26.530000	0.325100
0.052759	26.530000	0.325100
0.052770	25.390000	0.313000
0.052782	25.390000	0.313000
0.052793	25.390000	0.313000
0.052805	6.070000	0.095100
0.052817	6.070000	0.095100
0.052828	14.440000	0.095100
0.052840	14.440000	0.174400
0.052851	14.440000	0.174400
0.052863	17.660000	0.213600
0.052875	17.660000	0.213600
0.052886	17.660000	0.213600
0.052898	17.660000	0.213600
0.052909	18.590000	0.224300
0.052921	18.590000	0.224300
0.052932	18.590000	0.224300
0.052944	18.590000	0.228500
0.052956	18.590000	0.228500
0.052968	18.590000	0.228500
0.052979	18.590000	0.228400
0.052990	18.590000	0.228400
0.053002	9.440000	0.125900
0.053014	9.440000	0.125900
0.053025	9.440000	0.125900
0.053037	9.440000	0.125900
0.053048	9.440000	0.125900
0.053060	9.440000	0.125900
0.053071	9.440000	0.125900
0.053083	11.150000	0.146300
0.053095	11.150000	0.146300
0.053106	11.150000	0.146300
0.053118	10.010000	0.130700
0.053129	10.010000	0.130700
0.053141	10.010000	0.130700
0.053152	10.220000	0.132800
0.053165	10.220000	0.132800
0.053176	12.010000	0.150700
0.053187	12.010000	0.150700
0.053199	12.010000	0.150700
0.053211	10.440000	0.135500
0.053222	10.440000	0.135500
0.053234	10.440000	0.135500
0.053245	10.440000	0.135500
0.053257	10.010000	0.131700
0.053268	10.010000	0.131700
0.053280	10.010000	0.131700
0.053292	10.150000	0.133200
0.053303	10.150000	0.133200
0.053314	10.150000	0.133200
0.053326	10.010000	0.131400
0.053337	10.010000	0.131400
0.053349	10.150000	0.133400
0.053361	10.150000	0.133400
0.053372	10.150000	0.133400
0.053384	10.150000	0.134500
0.053396	10.150000	0.134500
0.053407	10.150000	0.134500
0.053419	10.150000	0.134500
0.053430	9.870000	0.132300
0.053442	9.870000	0.132300
0.053453	9.870000	0.132300
0.053465	9.870000	0.132300
0.053477	9.870000	0.132300
0.053488	9.870000	0.132300
0.053500	9.870000	0.132800
0.053511	9.870000	0.132800
0.053523	9.870000	0.132100
0.053534	9.870000	0.132100
0.053546	9.870000	0.132100
0.053557	9.870000	0.132100
0.053569	9.940000	0.132400
0.053581	9.940000	0.132400
0.053592	9.940000	0.132400
0.053604	7.510000	0.109100
0.053615	7.510000	0.109100
0.053627	7.510000	0.109100
0.053639	21.670000	0.314800
0.053650	21.670000	0.314800
0.053662	11.370000	0.146800
0.053673	11.370000	0.146800
0.053685	11.370000	0.146800
0.053696	11.150000	0.144900
0.053708	11.150000	0.144900
0.053720	11.150000	0.144900
0.053731	11.150000	0.144900
0.053743	3.640000	0.057300
0.053754	3.640000	0.057300
0.053766	3.640000	0.057300
0.053777	3.640000	0.057300
0.053789	3.640000	0.057300
0.053801	3.640000	0.057300
0.053812	3.640000	0.057900
0.053824	3.640000	0.057900
0.053835	12.580000	0.192700
0.053847	12.580000	0.192700
0.053859	12.580000	0.192700
0.053870	9.720000	0.131400
0.053882	9.720000	0.131400
0.053893	9.720000	0.131400
0.053905	9.720000	0.131400
0.053916	9.650000	0.129000
0.053928	9.650000	0.129000
0.053939	9.650000	0.129000
0.053951	9.650000	0.128800
0.053963	9.650000	0.128800
0.053974	9.650000	0.128800
0.053986	4.430000	0.070100
0.053997	4.430000	0.070100
0.054009	4.430000	0.067400
0.054021	4.430000	0.067400
0.054032	4.430000	0.067400
0.054044	4.430000	0.067400
0.054055	4.430000	0.067400
0.054067	4.430000	0.067400
0.054079	4.430000	0.067400
0.054090	4.430000	0.067800
0.054102	4.430000	0.067800
0.054113	4.430000	0.067800
0.054125	4.430000	0.067900
0.054136	4.430000	0.067900
0.054148	4.430000	0.067800
0.054160	4.430000	0.067800
0.054171	4.430000	0.067800
0.054183	4.430000	0.067600
0.054194	4.430000	0.067600
0.054206	4.430000	0.067600
0.054217	4.430000	0.067600
0.054229	4.430000	0.067700
0.054241	4.430000	0.067700
0.054252	4.430000	0.067700
0.054264	4.430000	0.068300
0.054275	4.430000	0.068300
0.054287	4.430000	0.068300
0.054299	4.430000	0.068000
0.054310	4.430000	0.068000
0.054322	4.430000	0.068100
0.054333	4.430000	0.068100
0.054345	4.430000	0.068100
0.054356	4.430000	0.067800
0.054368	4.430000	0.067800
0.054380	4.430000	0.067800
0.054391	4.430000	0.067800
0.054402	4.430000	0.067900
0.054414	4.430000	0.067900
0.054426	4.430000	0.067900
0.054438	4.430000	0.067700
0.054449	4.430000	0.067700
0.054460	4.430000	0.067700
0.054472	4.430000	0.068100
0.054484	4.430000	0.068100
0.054495	4.430000	0.068100
0.054507	4.430000	0.068100
0.054518	4.430000	0.068100
0.054530	4.430000	0.068700
0.054542	4.430000	0.068700
0.054554	4.430000	0.068700
0.054565	4.430000	0.068700
0.054576	4.500000	0.068900
0.054588	4.500000	0.068900
0.054599	4.500000	0.068900
0.054611	4.430000	0.069000
0.054623	4.430000	0.069000
0.054634	4.430000	0.069000
0.054646	4.430000	0.069000
0.054657	4.430000	0.069000
0.054669	4.430000	0.069200
0.054680	4.430000	0.069200
0.054692	4.430000	0.069200
0.054704	4.500000	0.069100
0.054715	4.500000	0.069100
0.054727	4.500000	0.069100
0.054738	4.500000	0.069100
0.054750	4.500000	0.068900
0.054762	4.500000	0.068900
0.054773	4.500000	0.068900
0.054785	4.500000	0.068900
0.054797	4.500000	0.068900
0.054808	4.430000	0.068600
0.054820	4.430000	0.068600
0.054831	4.430000	0.068600
0.054843	4.430000	0.068500
0.054855	4.430000	0.068500
0.054866	4.430000	0.068500
0.054878	4.430000	0.068500
0.054889	4.500000	0.068800
0.054901	4.500000	0.068800
0.054912	4.500000	0.068800
0.054924	4.500000	0.068500
0.054936	4.500000	0.068500
0.054948	4.500000	0.068500
0.054959	4.430000	0.068500
0.054970	4.430000	0.068500
0.054982	4.430000	0.068200
0.054994	4.430000	0.068200
0.055005	4.430000	0.068200
0.055017	4.500000	0.068600
0.055028	4.500000	0.068600
0.055040	4.500000	0.068600
0.055052	4.500000	0.068600
0.055063	4.500000	0.068800
0.055075	4.500000	0.068800
0.055087	4.500000	0.068800
0.055098	4.430000	0.069100
0.055110	4.430000	0.069100
0.055122	4.430000	0.069100
0.055134	4.430000	0.069000
0.055145	4.430000	0.069000
0.055157	4.430000	0.068700
0.055168	4.430000	0.068700
0.055180	4.430000	0.068700
0.055192	4.500000	0.068500
0.055203	4.500000	0.068500
0.055215	4.500000	0.068500
0.055226	4.500000	0.068500
0.055238	4.500000	0.068500
0.055250	4.500000	0.068500
0.055261	4.500000	0.068500
0.055273	4.500000	0.068500
0.055284	4.500000	0.068500
0.055296	4.500000	0.068500
0.055308	4.500000	0.068900
0.055319	4.500000	0.068900
0.055331	4.430000	0.068900
0.055343	4.430000	0.068900
0.055354	4.430000	0.068900
0.055366	4.430000	0.068600
0.055377	4.430000	0.068600
0.055389	4.430000	0.068600
0.055400	4.500000	0.068600
0.055412	4.500000	0.068600
0.055424	4.500000	0.068600
0.055435	4.500000	0.068600
0.055447	4.430000	0.069200
0.055458	4.430000	0.069200
0.055470	4.430000	0.069500
0.055482	4.430000	0.069500
0.055493	4.430000	0.069500
0.055505	4.430000	0.068900
0.055516	4.430000	0.068900
0.055528	4.430000	0.068900
0.055539	4.430000	0.069100
0.055551	4.430000	0.069100
0.055563	4.430000	0.069100
0.055574	4.430000	0.069100
0.055586	4.430000	0.069100
0.055597	4.430000	0.069100
0.055609	4.430000	0.069100
0.055620	4.500000	0.068600
0.055632	4.500000	0.068600
0.055644	4.430000	0.068400
0.055655	4.430000	0.068400
0.055667	4.430000	0.068400
0.055679	4.430000	0.068200
0.055690	4.430000	0.068200
0.055701	4.430000	0.068200
0.055713	4.430000	0.067800
0.055725	4.430000	0.067800
0.055736	4.430000	0.067800
0.055748	4.430000	0.067800
0.055759	4.430000	0.067600
0.055771	4.430000	0.067600
0.055783	4.430000	0.067600
0.055794	4.500000	0.068400
0.055806	4.500000	0.068400
0.055817	4.430000	0.068900
0.055829	4.430000	0.068900
0.055840	4.430000	0.068900
0.055852	4.430000	0.069200
0.055864	4.430000	0.069200
0.055875	4.430000	0.069200
0.055887	4.500000	0.068700
0.055899	4.500000	0.068700
0.055910	4.500000	0.068700
0.055922	4.500000	0.068700
0.055934	4.290000	0.066700
0.055945	4.290000	0.066700
0.055956	4.290000	0.066700
0.055968	4.290000	0.066700
0.055980	4.290000	0.066700
0.055991	4.360000	0.066300
0.056003	4.360000	0.066300
0.056015	4.360000	0.066300
0.056026	8.790000	0.079000
0.056038	8.790000	0.079000
0.056049	8.790000	0.079000
0.056061	8.790000	0.079000
0.056072	10.370000	0.082600
0.056084	10.370000	0.082600
0.056096	10.370000	0.082600
0.056107	10.290000	0.082500
0.056120	10.290000	0.082500
0.056131	10.370000	0.082300
0.056142	10.370000	0.082300
0.056154	10.370000	0.082300
0.056165	10.290000	0.082300
0.056177	10.290000	0.082300
0.056189	10.290000	0.082300
0.056200	10.290000	0.082300
0.056212	10.290000	0.082300
0.056223	10.290000	0.082300
0.056235	10.290000	0.082300
0.056246	10.290000	0.082400
0.056258	10.290000	0.082400
0.056270	10.290000	0.082400
0.056281	10.290000	0.082300
0.056293	10.290000	0.082300
0.056305	10.290000	0.082000
0.056316	10.290000	0.082000
0.056328	10.290000	0.082000
0.056340	10.290000	0.082100
0.056351	10.290000	0.082100
0.056363	10.290000	0.082100
0.056374	10.290000	0.082300
0.056386	10.290000	0.082300
0.056398	10.290000	0.082300
0.056409	10.290000	0.082300
0.056421	10.290000	0.082300
0.056433	10.290000	0.082300
0.056444	10.220000	0.082100
0.056456	10.220000	0.082100
0.056467	10.220000	0.082100
0.056479	10.220000	0.082300
0.056490	10.220000	0.082300
0.056502	10.220000	0.082300
0.056514	10.220000	0.082400
0.056525	10.220000	0.082400
0.056537	10.220000	0.082400
0.056548	10.220000	0.082600
0.056560	10.220000	0.082600
0.056571	10.220000	0.082600
0.056583	10.220000	0.082600
0.056594	10.150000	0.082600
0.056606	10.150000	0.082600
0.056618	10.510000	0.085800
0.056629	10.510000	0.085800
0.056641	10.510000	0.085800
0.056653	10.440000	0.085400
0.056665	10.440000	0.085400
0.056676	10.440000	0.085400
0.056687	10.440000	0.085400
0.056699	10.440000	0.085400
0.056710	10.440000	0.085400
0.056722	10.440000	0.085300
0.056734	10.440000	0.085300
0.056745	10.440000	0.085300
0.056757	10.440000	0.085300
0.056768	10.440000	0.085500
0.056780	10.440000	0.085500
0.056792	10.510000	0.086000
0.056803	10.510000	0.086000
0.056815	10.510000	0.086000
0.056828	10.440000	0.085000
0.056838	10.440000	0.085000
0.056850	10.440000	0.085000
0.056861	10.510000	0.084700
0.056873	10.510000	0.084700
0.056884	10.510000	0.084700
0.056896	10.510000	0.084900
0.056908	10.510000	0.084900
0.056919	10.510000	0.084900
0.056931	4.570000	0.084900
0.056942	4.570000	0.069600
0.056954	4.570000	0.069600
0.056965	4.500000	0.069500
0.056977	4.500000	0.069500
0.056989	4.500000	0.069500
0.057000	4.500000	0.069400
0.057012	4.500000	0.069400
0.057023	4.500000	0.069400
0.057035	4.500000	0.069300
0.057047	4.500000	0.069300
0.057058	4.500000	0.069300
0.057070	4.500000	0.069300
0.057081	4.500000	0.069300
0.057093	4.500000	0.069300
0.057105	4.500000	0.069000
0.057117	4.500000	0.069000
0.057128	4.500000	0.069000
0.057140	4.500000	0.069600
0.057151	4.500000	0.069600
0.057163	4.500000	0.069600
0.057174	4.500000	0.069200
0.057186	4.500000	0.069200
0.057198	4.500000	0.069200
0.057209	4.500000	0.069200
0.057221	4.500000	0.069200
0.057233	4.500000	0.069200
0.057244	4.500000	0.069400
0.057256	4.500000	0.069400
0.057267	4.500000	0.069400
0.057279	4.500000	0.069500
0.057290	4.500000	0.069500
0.057302	4.500000	0.069500
0.057313	4.500000	0.069800
0.057325	4.500000	0.069800
0.057337	4.500000	0.069800
0.057348	4.500000	0.069800
0.057360	4.500000	0.069800
0.057372	4.500000	0.069800
0.057383	4.500000	0.070200
0.057395	4.500000	0.070200
0.057406	4.500000	0.070200
0.057418	4.500000	0.070200
0.057429	4.500000	0.070200
0.057441	4.500000	0.070200
0.057453	4.500000	0.069200
0.057464	4.500000	0.069200
0.057476	4.500000	0.069200
0.057488	4.500000	0.069400
0.057499	4.500000	0.069400
0.057511	4.500000	0.069400
0.057522	4.500000	0.069500
0.057534	4.500000	0.069500
0.057546	4.500000	0.069500
0.057557	4.500000	0.069400
0.057569	4.500000	0.069400
0.057580	4.500000	0.069400
0.057592	4.500000	0.069400
0.057603	4.500000	0.069300
0.057615	4.500000	0.069300
0.057627	4.500000	0.069600
0.057638	4.500000	0.069600
0.057650	4.500000	0.069600
0.057661	4.500000	0.069100
0.057673	4.500000	0.069100
0.057684	4.500000	0.069100
0.057696	4.500000	0.069300
0.057708	4.500000	0.069300
0.057719	4.500000	0.069300
0.057731	4.500000	0.069600
0.057742	4.500000	0.069600
0.057754	4.500000	0.069600
0.057766	4.500000	0.069200
0.057777	4.500000	0.069200
0.057789	4.500000	0.069200
0.057801	4.500000	0.068900
0.057812	4.500000	0.068900
0.057824	4.500000	0.068900
0.057835	4.500000	0.069100
0.057847	4.500000	0.069100
0.057859	4.500000	0.069100
0.057870	4.500000	0.069000
0.057882	4.500000	0.069000
0.057894	4.500000	0.069000
0.057905	4.500000	0.069300
0.057916	4.500000	0.069300
0.057928	4.500000	0.070000
0.057940	4.500000	0.070000
0.057952	4.500000	0.070000
0.057963	4.500000	0.070000
0.057975	4.500000	0.069100
0.057986	4.500000	0.069100
0.057998	4.500000	0.069100
0.058009	4.570000	0.070100
0.058021	4.570000	0.070100
0.058033	4.570000	0.070100
0.058044	4.570000	0.069800
0.058056	4.570000	0.069800
0.058067	4.570000	0.069800
0.058079	4.570000	0.071000
0.058090	4.570000	0.071000
0.058102	4.570000	0.069400
0.058113	4.570000	0.069400
0.058125	4.570000	0.069400
0.058137	4.570000	0.069400
0.058148	4.570000	0.069400
0.058160	4.570000	0.069400
0.058171	4.570000	0.069400
0.058183	4.570000	0.070800
0.058195	4.570000	0.070800
0.058206	4.570000	0.070800
0.058218	4.570000	0.070800
0.058229	4.570000	0.070800
0.058241	4.570000	0.070800
0.058252	4.570000	0.070200
0.058264	4.570000	0.070200
0.058276	4.570000	0.070200
0.058287	4.570000	0.070100
0.058299	4.570000	0.070100
0.058310	4.570000	0.070100
0.058322	4.570000	0.070600
0.058333	4.570000	0.070600
0.058345	4.570000	0.070600
0.058357	4.570000	0.070400
0.058368	4.570000	0.070400
0.058380	4.570000	0.070400
0.058391	4.570000	0.070200
0.058403	4.570000	0.070200
0.058414	4.570000	0.070200
0.058426	4.570000	0.070200
0.058438	4.570000	0.070200
0.058449	4.570000	0.070200
0.058461	4.570000	0.070400
0.058472	4.570000	0.070400
0.058484	4.570000	0.070400
0.058495	4.570000	0.070200
0.058507	4.570000	0.070200
0.058519	4.570000	0.070200
0.058530	4.500000	0.070100
0.058542	4.500000	0.070100
0.058553	4.500000	0.070100
0.058565	4.570000	0.070000
0.058577	4.570000	0.070000
0.058588	4.500000	0.069900
0.058600	4.500000	0.069900
0.058611	4.500000	0.069900
0.058623	4.500000	0.069900
0.058634	4.570000	0.070000
0.058646	4.570000	0.070000
0.058658	4.570000	0.070000
0.058669	4.500000	0.070300
0.058681	4.500000	0.070300
0.058692	4.500000	0.070300
0.058704	4.360000	0.067900
0.058715	4.360000	0.067900
0.058727	4.360000	0.067900
0.058739	4.360000	0.067900
0.058750	4.360000	0.067900
0.058762	4.360000	0.067900
0.058773	4.360000	0.067200
0.058785	4.360000	0.067200
0.058797	4.360000	0.067200
0.058808	4.360000	0.068000
0.058820	4.360000	0.068000
0.058831	4.360000	0.068000
0.058843	4.360000	0.068200
0.058855	4.360000	0.068200
0.058866	4.360000	0.068200
0.058878	4.360000	0.068900
0.058890	4.360000	0.068900
0.058901	4.360000	0.068900
0.058913	4.290000	0.068100
0.058924	4.290000	0.068100
0.058936	4.290000	0.068100
0.058948	4.360000	0.068000
0.058959	4.360000	0.068000
0.058971	4.360000	0.068000
0.058982	4.360000	0.067600
0.058994	4.360000	0.067600
0.059005	4.360000	0.067600
0.059017	4.360000	0.067800
0.059029	4.360000	0.067800
0.059040	4.360000	0.067800
0.059052	4.360000	0.068000
0.059063	4.360000	0.068000
0.059075	4.360000	0.067900
0.059086	4.360000	0.067900
0.059098	4.360000	0.067900
0.059109	4.360000	0.067900
0.059121	4.290000	0.067600
0.059133	4.290000	0.067600
0.059144	4.290000	0.067600
0.059156	4.360000	0.067900
0.059167	4.360000	0.067900
0.059179	4.360000	0.067900
0.059190	4.360000	0.068000
0.059202	4.360000	0.068000
0.059214	4.360000	0.068000
0.059225	4.360000	0.067500
0.059237	4.360000	0.067500
0.059248	4.360000	0.067100
0.059260	4.360000	0.067100
0.059272	4.360000	0.067100
0.059283	4.360000	0.067100
0.059295	4.290000	0.066700
0.059306	4.290000	0.066700
0.059318	4.290000	0.066700
0.059330	4.360000	0.067800
0.059341	4.360000	0.067800
0.059353	4.360000	0.067800
0.059365	4.430000	0.068700
0.059376	4.430000	0.068700
0.059388	4.430000	0.068700
0.059399	4.500000	0.069600
0.059411	4.500000	0.069600
0.059423	4.500000	0.069300
0.059434	4.500000	0.069300
0.059446	4.500000	0.069300
0.059457	4.500000	0.069300
0.059469	4.500000	0.069100
0.059480	4.500000	0.069100
0.059492	4.500000	0.069100
0.059504	4.500000	0.069000
0.059515	4.500000	0.069000
0.059527	4.500000	0.069000
0.059538	4.500000	0.068900
0.059550	4.500000	0.068900
0.059562	4.500000	0.069200
0.059573	4.500000	0.069200
0.059584	4.500000	0.069200
0.059596	4.500000	0.069200
0.059608	4.500000	0.069200
0.059619	4.500000	0.069200
0.059631	4.500000	0.069200
0.059642	4.500000	0.069200
0.059654	4.500000	0.069200
0.059666	4.500000	0.069200
0.059677	4.500000	0.068900
0.059689	4.500000	0.068900
0.059700	4.500000	0.068900
0.059712	4.500000	0.069000
0.059723	4.500000	0.069000
0.059735	4.500000	0.069300
0.059747	4.500000	0.069300
0.059758	4.500000	0.069300
0.059770	4.500000	0.069300
0.059781	4.500000	0.068700
0.059793	4.500000	0.068700
0.059804	4.500000	0.068700
0.059816	4.500000	0.069000
0.059828	4.500000	0.069000
0.059839	4.500000	0.069000
0.059851	4.500000	0.069000
0.059862	4.500000	0.069000
0.059874	4.500000	0.069000
0.059886	4.500000	0.068900
0.059897	4.500000	0.068900
0.059909	4.500000	0.068800
0.059920	4.500000	0.068800
0.059932	4.500000	0.068800
0.059943	4.500000	0.068800
0.059955	4.500000	0.068900
0.059967	4.500000	0.068900
0.059978	4.500000	0.068900
0.059990	4.430000	0.068900
0.060002	4.430000	0.068900
0.060013	4.430000	0.068900
0.060025	4.500000	0.069200
0.060036	4.500000	0.069200
0.060048	4.500000	0.069200
0.060060	4.500000	0.069500
0.060071	4.500000	0.069500
0.060083	4.430000	0.068800
0.060094	4.430000	0.068800
0.060106	4.430000	0.068800
0.060117	4.430000	0.068800
0.060129	4.430000	0.069200
0.060140	4.430000	0.069200
0.060152	4.430000	0.069200
0.060163	4.430000	0.068500
0.060175	4.430000	0.068500
0.060187	4.430000	0.068500
0.060198	4.430000	0.068400
0.060210	4.430000	0.068400
0.060221	4.430000	0.068600
0.060233	4.430000	0.068600
0.060245	4.430000	0.068600
0.060256	4.430000	0.069000
0.060268	4.430000	0.069000
0.060280	4.430000	0.069000
0.060291	4.430000	0.069000
0.060303	4.430000	0.068800
0.060314	4.430000	0.068800
0.060326	4.430000	0.068800
0.060338	4.430000	0.068800
0.060349	4.430000	0.068800
0.060361	4.430000	0.068800
0.060373	4.430000	0.068200
0.060384	4.430000	0.068200
0.060396	4.430000	0.069000
0.060407	4.430000	0.069000
0.060419	4.430000	0.069000
0.060430	4.430000	0.069000
0.060442	4.500000	0.069100
0.060454	4.500000	0.069100
0.060465	4.500000	0.069100
0.060477	4.430000	0.069000
0.060489	4.430000	0.069000
0.060500	4.430000	0.069000
0.060512	4.430000	0.068700
0.060523	4.430000	0.068700
0.060535	4.430000	0.068700
0.060546	4.430000	0.068600
0.060558	4.430000	0.068600
0.060570	4.430000	0.068400
0.060581	4.430000	0.068400
0.060593	4.430000	0.068400
0.060604	4.430000	0.068400
0.060616	4.430000	0.068000
0.060627	4.430000	0.068000
0.060639	4.430000	0.068000
0.060651	4.430000	0.068500
0.060662	4.430000	0.068500
0.060674	4.430000	0.068500
0.060686	4.430000	0.068600
0.060697	4.430000	0.068600
0.060709	4.430000	0.068600
0.060720	4.430000	0.068400
0.060732	4.430000	0.068400
0.060743	4.430000	0.068700
0.060755	4.430000	0.068700
0.060767	4.430000	0.068700
0.060778	4.430000	0.068700
0.060790	4.360000	0.068100
0.060801	4.360000	0.068100
0.060813	4.360000	0.068100
0.060825	4.360000	0.068700
0.060836	4.360000	0.068700
0.060848	4.360000	0.068700
0.060859	4.360000	0.068500
0.060871	4.360000	0.068500
0.060882	4.360000	0.068700
0.060894	4.360000	0.068700
0.060905	4.360000	0.068700
0.060917	4.430000	0.068700
0.060929	4.430000	0.068700
0.060940	4.430000	0.068700
0.060952	4.430000	0.068700
0.060963	4.360000	0.068700
0.060975	4.360000	0.068700
0.060986	4.360000	0.068700
0.060998	4.360000	0.068500
0.061010	4.360000	0.068500
0.061021	4.360000	0.068500
0.061033	4.360000	0.068400
0.061044	4.360000	0.068400
0.061056	4.360000	0.068500
0.061067	4.360000	0.068500
0.061079	4.360000	0.068500
0.061091	4.360000	0.068500
0.061102	4.360000	0.068400
0.061114	4.360000	0.068400
0.061125	4.360000	0.068400
0.061137	4.430000	0.068200
0.061149	4.430000	0.068200
0.061160	4.430000	0.068200
0.061172	4.430000	0.067900
0.061183	4.430000	0.067900
0.061195	4.430000	0.067900
0.061206	4.360000	0.068200
0.061218	4.360000	0.068200
0.061229	4.430000	0.068700
0.061241	4.430000	0.068700
0.061253	4.430000	0.068700
0.061264	4.430000	0.068700
0.061276	4.360000	0.069200
0.061287	4.360000	0.069200
0.061299	4.360000	0.069200
0.061310	4.360000	0.068500
0.061322	4.360000	0.068500
0.061334	4.360000	0.068500
0.061345	4.360000	0.068500
0.061357	4.360000	0.068500
0.061368	4.360000	0.068100
0.061380	4.360000	0.068100
0.061391	4.360000	0.068100
0.061403	4.360000	0.068500
0.061415	4.360000	0.068500
0.061426	4.360000	0.068500
0.061438	4.360000	0.068500
0.061449	4.430000	0.068700
0.061461	4.430000	0.068700
0.061472	4.430000	0.068700
0.061486	4.430000	0.069100
0.061496	4.430000	0.069100
0.061507	4.430000	0.069100
0.061519	4.430000	0.069100
0.061530	4.430000	0.069100
0.061542	4.430000	0.069100
0.061554	4.500000	0.068900
0.061565	4.500000	0.068900
0.061577	4.430000	0.068900
0.061588	4.430000	0.068700
0.061600	4.430000	0.068700
0.061612	4.430000	0.069000
0.061624	4.430000	0.069000
0.061635	4.430000	0.069000
0.061646	4.430000	0.069000
0.061658	4.430000	0.068700
0.061669	4.430000	0.068700
0.061681	4.430000	0.068700
0.061693	4.430000	0.068900
0.061704	4.430000	0.068900
0.061716	4.430000	0.068900
0.061727	4.430000	0.069000
0.061739	4.430000	0.069000
0.061750	4.430000	0.068800
0.061762	4.430000	0.068800
0.061773	4.430000	0.068800
0.061785	4.430000	0.069300
0.061797	4.430000	0.069300
0.061808	4.430000	0.069300
0.061820	4.430000	0.069300
0.061831	4.430000	0.069600
0.061843	4.430000	0.069600
0.061855	4.430000	0.069600
0.061866	4.430000	0.069100
0.061878	4.430000	0.069100
0.061889	4.430000	0.069100
0.061901	4.430000	0.069400
0.061913	4.430000	0.069400
0.061924	4.430000	0.069300
0.061936	4.430000	0.069300
0.061947	4.430000	0.069300
0.061959	4.430000	0.069300
0.061970	4.430000	0.070100
0.061982	4.430000	0.070100
0.061993	4.430000	0.070100
0.062005	4.500000	0.070100
0.062017	4.500000	0.070100
0.062028	4.500000	0.070100
0.062040	4.430000	0.068800
0.062051	4.430000	0.068800
0.062063	4.430000	0.068800
0.062074	4.430000	0.068600
0.062086	4.430000	0.068600
0.062098	4.430000	0.068400
0.062109	4.430000	0.068400
0.062121	4.430000	0.068400
0.062132	4.430000	0.068400
0.062144	4.430000	0.068600
0.062156	4.430000	0.068600
0.062167	4.430000	0.068600
0.062179	4.430000	0.068400
0.062190	4.430000	0.068400
0.062202	4.430000	0.068400
0.062213	4.430000	0.068500
0.062225	4.430000	0.068500
0.062237	4.430000	0.068700
0.062248	4.430000	0.068700
0.062260	4.430000	0.068700
0.062272	4.430000	0.069100
0.062283	4.430000	0.069100
0.062295	4.430000	0.069100
0.062306	4.430000	0.069100
0.062318	4.430000	0.069000
0.062330	4.430000	0.069000
0.062341	4.430000	0.069000
0.062352	4.430000	0.068800
0.062364	4.430000	0.068800
0.062376	4.430000	0.068800
0.062387	4.430000	0.068600
0.062399	4.430000	0.068600
0.062410	4.430000	0.068800
0.062422	4.430000	0.068800
0.062434	4.430000	0.068800
0.062445	4.430000	0.069000
0.062457	4.430000	0.069000
0.062468	4.430000	0.069000
0.062480	4.430000	0.069000
0.062491	4.430000	0.068600
0.062503	4.430000	0.068600
0.062515	4.430000	0.068600
0.062526	4.430000	0.068600
0.062538	4.430000	0.068600
0.062549	4.430000	0.068600
0.062561	4.430000	0.069100
0.062573	4.430000	0.069100
0.062584	4.430000	0.068800
0.062596	4.430000	0.068800
0.062608	4.430000	0.068800
0.062619	4.430000	0.068800
0.062631	4.430000	0.068200
0.062642	4.430000	0.068200
0.062654	4.430000	0.068200
0.062665	4.430000	0.068100
0.062677	4.430000	0.068100
0.062689	4.430000	0.068100
0.062700	4.430000	0.067900
0.062712	4.430000	0.067900
0.062724	4.430000	0.069100
0.062735	4.430000	0.069100
0.062747	4.430000	0.069100
0.062758	4.430000	0.069300
0.062770	4.430000	0.069300
0.062781	4.430000	0.069300
0.062793	4.430000	0.069300
0.062805	4.430000	0.069100
0.062816	4.430000	0.069100
0.062828	4.430000	0.069100
0.062839	4.290000	0.067200
0.062851	4.290000	0.067200
0.062862	4.290000	0.067200
0.062874	4.290000	0.066900
0.062886	4.290000	0.066900
0.062897	4.290000	0.066600
0.062909	4.290000	0.066600
0.062920	4.290000	0.066600
0.062932	4.290000	0.066200
0.062943	4.290000	0.066200
0.062955	4.290000	0.066200
0.062966	4.290000	0.066200
0.062978	4.290000	0.066000
0.062990	4.290000	0.066000
0.063001	4.290000	0.066000
0.063013	4.290000	0.066200
0.063025	4.290000	0.066200
0.063036	4.290000	0.066200
0.063048	4.290000	0.065900
0.063059	4.290000	0.065900
0.063071	4.290000	0.066000
0.063082	4.290000	0.066000
0.063094	4.290000	0.066000
0.063105	4.290000	0.066400
0.063117	4.290000	0.066400
0.063129	4.290000	0.066400
0.063140	4.290000	0.066400
0.063152	4.290000	0.066400
0.063164	4.290000	0.066400
0.063175	4.290000	0.066400
0.063187	4.290000	0.066400
0.063199	4.290000	0.066400
0.063210	4.290000	0.066400
0.063222	4.290000	0.066700
0.063233	4.290000	0.066700
0.063245	4.290000	0.066500
0.063257	4.290000	0.066500
0.063268	4.290000	0.066500
0.063280	4.290000	0.066500
0.063291	4.290000	0.066500
0.063303	4.290000	0.066500
0.063315	4.290000	0.066500
0.063326	4.290000	0.066500
0.063337	4.290000	0.066500
0.063349	4.290000	0.066500
0.063361	4.290000	0.066700
0.063373	4.290000	0.066700
0.063384	4.290000	0.066700
0.063396	4.290000	0.067000
0.063407	4.290000	0.067000
0.063419	4.290000	0.066700
0.063431	4.290000	0.066700
0.063442	4.290000	0.066700
0.063454	4.290000	0.066600
0.063465	4.290000	0.066600
0.063477	4.290000	0.066600
0.063489	4.290000	0.066600
0.063500	4.290000	0.067300
0.063512	4.290000	0.067300
0.063523	4.290000	0.067300
0.063535	4.500000	0.070100
0.063546	4.500000	0.070100
0.063558	4.500000	0.069800
0.063569	4.500000	0.069800
0.063581	4.500000	0.069800
0.063593	4.500000	0.069800
0.063604	4.500000	0.069800
0.063616	4.500000	0.069800
0.063628	4.500000	0.069900
0.063639	4.500000	0.069900
0.063651	4.500000	0.069900
0.063662	4.500000	0.069900
0.063674	4.430000	0.069900
0.063685	4.430000	0.069900
0.063697	4.430000	0.069900
0.063709	4.500000	0.070000
0.063720	4.500000	0.070000
0.063732	4.500000	0.070200
0.063743	4.500000	0.070200
0.063755	4.500000	0.070200
0.063767	4.500000	0.069900
0.063778	4.500000	0.069900
0.063790	4.500000	0.069900
0.063801	4.500000	0.069900
0.063813	4.500000	0.069500
0.063825	4.500000	0.069500
0.063837	4.500000	0.069500
0.063848	4.500000	0.069600
0.063860	4.500000	0.069600
0.063871	4.500000	0.069600
0.063883	4.500000	0.069900
0.063894	4.500000	0.069900
0.063906	4.500000	0.070100
0.063918	4.500000	0.070100
0.063929	4.500000	0.070100
0.063941	4.500000	0.069700
0.063952	4.500000	0.069700
0.063964	4.500000	0.069700
0.063975	4.500000	0.069700
0.063987	4.500000	0.069500
0.063999	4.500000	0.069500
0.064010	4.500000	0.069500
0.064022	4.500000	0.069700
0.064033	4.500000	0.069700
0.064045	4.500000	0.069800
0.064056	4.500000	0.069800
0.064068	4.500000	0.069800
0.064080	4.500000	0.069900
0.064091	4.500000	0.069900
0.064103	4.500000	0.069900
0.064114	4.500000	0.069900
0.064126	4.500000	0.069900
0.064138	4.500000	0.069900
0.064150	4.500000	0.069900
0.064161	4.500000	0.070300
0.064172	4.500000	0.070300
0.064184	4.500000	0.070300
0.064195	4.500000	0.070400
0.064207	4.500000	0.070400
0.064219	4.360000	0.067700
0.064230	4.360000	0.067700
0.064242	4.360000	0.067700
0.064253	4.360000	0.067300
0.064265	4.360000	0.067300
0.064276	4.360000	0.067300
0.064288	4.360000	0.067400
0.064300	4.360000	0.067400
0.064311	4.360000	0.067400
0.064323	4.360000	0.067400
0.064334	4.360000	0.067300
0.064346	4.360000	0.067300
0.064357	4.360000	0.067300
0.064369	4.360000	0.067500
0.064381	4.360000	0.067500
0.064392	4.360000	0.067500
0.064404	4.360000	0.067500
0.064415	4.360000	0.067500
0.064427	4.360000	0.067100
0.064438	4.360000	0.067100
0.064450	4.360000	0.067100
0.064462	4.290000	0.067400
0.064473	4.290000	0.067400
0.064485	4.290000	0.067400
0.064496	4.290000	0.067400
0.064508	4.360000	0.067600
0.064519	4.360000	0.067600
0.064531	4.360000	0.067600
0.064543	4.360000	0.067500
0.064554	4.360000	0.067500
0.064566	4.360000	0.067600
0.064577	4.360000	0.067600
0.064589	4.360000	0.067600
0.064600	4.360000	0.067600
0.064612	4.360000	0.067600
0.064624	4.360000	0.067600
0.064635	4.360000	0.067700
0.064647	4.360000	0.067700
0.064658	4.360000	0.067700
0.064670	4.360000	0.067700
0.064682	4.360000	0.067500
0.064693	4.360000	0.067500
0.064705	4.360000	0.067500
0.064716	4.290000	0.068100
0.064728	4.290000	0.068100
0.064739	4.290000	0.068400
0.064751	4.290000	0.068400
0.064763	4.290000	0.068400
0.064774	4.290000	0.067900
0.064786	4.290000	0.067900
0.064797	4.290000	0.067900
0.064809	4.290000	0.067900
0.064820	4.290000	0.068000
0.064832	4.290000	0.068000
0.064844	4.290000	0.068000
0.064855	4.360000	0.067900
0.064867	4.360000	0.067900
0.064878	4.360000	0.067900
0.064890	4.360000	0.067900
0.064901	4.360000	0.067900
0.064913	4.360000	0.068200
0.064924	4.360000	0.068200
0.064936	4.360000	0.068200
0.064948	4.360000	0.069200
0.064959	4.360000	0.069200
0.064971	4.360000	0.069200
0.064982	4.360000	0.069200
0.064994	4.360000	0.068200
0.065006	4.360000	0.068200
0.065017	4.360000	0.068200
0.065029	4.430000	0.068500
0.065040	4.430000	0.068500
0.065052	4.360000	0.070200
0.065063	4.360000	0.070200
0.065075	4.360000	0.070200
0.065087	4.360000	0.069500
0.065098	4.360000	0.069500
0.065110	4.360000	0.069500
0.065121	4.430000	0.068100
0.065133	4.430000	0.068100
0.065144	4.430000	0.068100
0.065156	4.430000	0.068100
0.065167	4.360000	0.068500
0.065179	4.360000	0.068500
0.065191	4.360000	0.068500
0.065202	4.430000	0.070200
0.065214	4.430000	0.070200
0.065225	4.360000	0.071200
0.065237	4.360000	0.071200
0.065248	4.360000	0.071200
0.065260	4.360000	0.068400
0.065272	4.360000	0.068400
0.065283	4.360000	0.068400
0.065295	4.360000	0.068400
0.065307	4.360000	0.068400
0.065318	4.360000	0.068400
0.065329	4.360000	0.068400
0.065341	4.360000	0.068900
0.065353	4.360000	0.068900
0.065364	4.360000	0.068900
0.065376	4.360000	0.068900
0.065388	4.360000	0.068900
0.065399	4.430000	0.068800
0.065411	4.430000	0.068800
0.065422	4.430000	0.068800
0.065434	4.360000	0.068600
0.065445	4.360000	0.068600
0.065457	4.360000	0.068600
0.065468	4.360000	0.068600
0.065480	4.360000	0.068500
0.065492	4.360000	0.068500
0.065504	4.360000	0.068500
0.065515	4.430000	0.067900
0.065526	4.430000	0.067900
0.065538	4.430000	0.068200
0.065550	4.430000	0.068200
0.065561	4.430000	0.068200
0.065573	4.360000	0.068100
0.065584	4.360000	0.068100
0.065596	4.360000	0.068100
0.065608	4.140000	0.065500
0.065619	4.140000	0.065500
0.065631	4.140000	0.065500
0.065642	4.140000	0.065500
0.065654	4.140000	0.065300
0.065665	4.140000	0.065300
0.065677	4.140000	0.065300
0.065688	4.140000	0.065300
0.065700	4.140000	0.065300
0.065712	4.140000	0.065500
0.065723	4.140000	0.065500
0.065735	4.140000	0.065500
0.065746	4.140000	0.065000
0.065758	4.140000	0.065000
0.065769	4.140000	0.065000
0.065781	4.140000	0.065200
0.065793	4.140000	0.065200
0.065804	4.140000	0.065200
0.065816	4.140000	0.065200
0.065827	4.140000	0.065200
0.065839	4.140000	0.065200
0.065850	4.140000	0.065200
0.065862	4.220000	0.065000
0.065873	4.220000	0.065000
0.065885	4.140000	0.065000
0.065897	4.140000	0.065000
0.065908	4.140000	0.065000
0.065920	4.140000	0.065200
0.065932	4.140000	0.065200
0.065943	4.140000	0.065200
0.065955	4.140000	0.065600
0.065966	4.140000	0.065600
0.065978	4.140000	0.065600
0.065989	4.140000	0.065600
0.066001	4.220000	0.065900
0.066012	4.220000	0.065900
0.066024	4.140000	0.065900
0.066035	4.140000	0.065900
0.066047	4.140000	0.065900
0.066059	4.140000	0.065900
0.066070	4.140000	0.065900
0.066082	4.140000	0.065900
0.066094	4.140000	0.065900
0.066105	4.140000	0.065900
0.066117	4.140000	0.065900
0.066128	4.140000	0.065900
0.066140	4.140000	0.065700
0.066152	4.140000	0.065700
0.066163	4.140000	0.065700
0.066175	4.140000	0.065100
0.066186	4.140000	0.065100
0.066198	4.140000	0.065300
0.066209	4.140000	0.065300
0.066221	4.140000	0.065300
0.066232	4.140000	0.064300
0.066244	4.140000	0.064300
0.066256	4.140000	0.064300
0.066267	4.220000	0.065600
0.066279	4.220000	0.065600
0.066290	4.220000	0.065600
0.066302	4.220000	0.065600
0.066313	4.360000	0.067300
0.066325	4.360000	0.067300
0.066337	4.360000	0.067300
0.066348	4.360000	0.067600
0.066360	4.360000	0.067600
0.066371	4.290000	0.067600
0.066383	4.290000	0.067600
0.066395	4.290000	0.067600
0.066406	4.360000	0.067900
0.066418	4.360000	0.067900
0.066430	4.360000	0.067900
0.066441	4.360000	0.067200
0.066453	4.360000	0.067200
0.066465	4.360000	0.067200
0.066476	4.360000	0.067200
0.066488	4.360000	0.066900
0.066500	4.360000	0.066900
0.066511	4.290000	0.066900
0.066523	4.290000	0.067000
0.066534	4.290000	0.067000
0.066546	4.360000	0.067300
0.066557	4.360000	0.067300
0.066569	4.360000	0.067300
0.066581	4.360000	0.067400
0.066592	4.360000	0.067400
0.066604	4.360000	0.067400
0.066616	4.360000	0.067600
0.066627	4.360000	0.067600
0.066639	4.360000	0.067600
0.066650	4.360000	0.067600
0.066662	4.360000	0.067300
0.066673	4.360000	0.067300
0.066685	4.360000	0.067000
0.066697	4.360000	0.067000
0.066708	4.360000	0.067000
0.066720	4.360000	0.067400
0.066732	4.360000	0.067400
0.066743	4.360000	0.067400
0.066755	4.360000	0.067600
0.066766	4.360000	0.067600
0.066778	4.360000	0.067600
0.066789	4.360000	0.067800
0.066801	4.360000	0.067800
0.066813	4.360000	0.067800
0.066824	4.360000	0.067800
0.066836	4.360000	0.067600
0.066847	4.360000	0.067600
0.066859	4.360000	0.067400
0.066870	4.360000	0.067400
0.066882	4.360000	0.067400
0.066894	4.360000	0.067600
0.066905	4.360000	0.067600
0.066917	4.360000	0.067600
0.066928	4.290000	0.067500
0.066940	4.290000	0.067500
0.066951	4.290000	0.067500
0.066963	4.290000	0.067500
0.066975	4.360000	0.067600
0.066986	4.360000	0.067600
0.066998	4.360000	0.067600
0.067009	4.290000	0.066900
0.067021	4.290000	0.066900
0.067032	4.290000	0.066700
0.067044	4.290000	0.066700
0.067056	4.290000	0.066700
0.067068	4.290000	0.067500
0.067079	4.290000	0.067500
0.067091	4.290000	0.067500
0.067102	4.290000	0.067300
0.067114	4.290000	0.067300
0.067125	4.290000	0.067300
0.067137	4.290000	0.067300
0.067148	4.290000	0.067000
0.067160	4.290000	0.067000
0.067171	4.290000	0.067300
0.067183	4.290000	0.067300
0.067194	4.290000	0.067300
0.067206	4.290000	0.067300
0.067218	4.290000	0.067300
0.067229	4.290000	0.067300
0.067241	4.290000	0.067000
0.067252	4.290000	0.067000
0.067264	4.290000	0.067000
0.067276	4.290000	0.066600
0.067287	4.290000	0.066600
0.067299	4.290000	0.066600
0.067310	4.290000	0.066600
0.067322	4.290000	0.067200
0.067333	4.290000	0.067200
0.067345	4.290000	0.067100
0.067356	4.290000	0.067100
0.067368	4.290000	0.067100
0.067380	4.290000	0.066900
0.067391	4.290000	0.066900
0.067403	4.290000	0.066900
0.067414	4.290000	0.066900
0.067426	4.290000	0.066900
0.067438	4.290000	0.066900
0.067449	4.290000	0.067200
0.067461	4.290000	0.067200
0.067473	4.290000	0.067200
0.067484	4.290000	0.067200
0.067496	4.290000	0.067000
0.067507	4.290000	0.067000
0.067519	4.290000	0.066900
0.067530	4.290000	0.066900
0.067542	4.290000	0.066900
0.067554	4.290000	0.066800
0.067565	4.290000	0.066800
0.067577	4.290000	0.066800
0.067588	4.290000	0.066800
0.067600	4.290000	0.066800
0.067612	4.290000	0.066800
0.067623	4.290000	0.066800
0.067635	4.290000	0.066600
0.067646	4.290000	0.066600
0.067658	4.290000	0.066700
0.067669	4.290000	0.066700
0.067681	4.290000	0.066700
0.067692	4.220000	0.066400
0.067704	4.220000	0.066400
0.067716	4.220000	0.066400
0.067728	4.220000	0.066300
0.067739	4.220000	0.066300
0.067751	4.220000	0.066300
0.067762	4.220000	0.066500
0.067774	4.220000	0.066500
0.067786	4.220000	0.066500
0.067797	4.220000	0.066500
0.067809	4.220000	0.066500
0.067821	4.220000	0.066500
0.067832	4.220000	0.066300
0.067844	4.220000	0.066300
0.067855	4.220000	0.066300
0.067867	4.220000	0.066700
0.067878	4.220000	0.066700
0.067890	4.220000	0.066700
0.067901	4.220000	0.067400
0.067913	4.220000	0.067400
0.067925	4.220000	0.067400
0.067936	4.220000	0.067400
0.067948	4.220000	0.067400
0.067959	4.220000	0.067400
0.067971	4.220000	0.067400
0.067982	4.220000	0.066100
0.067994	4.220000	0.066100
0.068006	4.220000	0.066000
0.068018	4.220000	0.066000
0.068029	4.220000	0.066000
0.068041	4.290000	0.066000
0.068052	4.290000	0.066000
0.068064	4.290000	0.066000
0.068076	4.220000	0.067000
0.068087	4.220000	0.067000
0.068099	4.220000	0.067000
0.068110	4.220000	0.065700
0.068122	4.220000	0.065700
0.068133	4.220000	0.065700
0.068145	4.220000	0.065700
0.068157	4.290000	0.066500
0.068168	4.290000	0.066500
0.068180	4.220000	0.066400
0.068192	4.220000	0.066400
0.068203	4.220000	0.066400
0.068215	4.290000	0.066500
0.068226	4.290000	0.066500
0.068238	4.290000	0.066500
0.068250	4.220000	0.065900
0.068261	4.220000	0.065900
0.068273	4.220000	0.065900
0.068284	4.220000	0.065900
0.068296	4.220000	0.065900
0.068307	4.220000	0.065900
0.068319	4.220000	0.065900
0.068331	4.220000	0.065700
0.068342	4.220000	0.065700
0.068354	4.290000	0.066800
0.068365	4.290000	0.066800
0.068377	4.290000	0.066800
0.068389	4.290000	0.066700
0.068400	4.290000	0.066700
0.068412	4.290000	0.066700
0.068423	4.290000	0.067000
0.068435	4.290000	0.067000
0.068446	4.290000	0.067000
0.068458	4.290000	0.066900
0.068469	4.290000	0.066900
0.068481	4.290000	0.066900
0.068493	4.290000	0.066900
0.068504	4.290000	0.066900
0.068516	4.290000	0.066900
0.068528	4.290000	0.066900
0.068539	4.290000	0.066900
0.068551	4.290000	0.066900
0.068563	4.290000	0.066500
0.068574	4.290000	0.066500
0.068586	4.290000	0.066500
0.068597	4.290000	0.066600
0.068609	4.290000	0.066600
0.068620	4.290000	0.066600
0.068632	4.290000	0.066600
0.068644	4.290000	0.066600
0.068655	4.290000	0.066600
0.068667	4.290000	0.066600
0.068678	4.290000	0.066600
0.068690	4.290000	0.066600
0.068702	4.290000	0.067200
0.068713	4.290000	0.067200
0.068725	4.290000	0.067200
0.068737	4.290000	0.066900
0.068748	4.290000	0.066900
0.068760	4.290000	0.066900
0.068771	4.220000	0.066400
0.068783	4.220000	0.066400
0.068795	4.220000	0.066400
0.068807	4.290000	0.066500
0.068818	4.290000	0.066500
0.068829	4.290000	0.066500
0.068841	4.290000	0.066700
0.068853	4.290000	0.066700
0.068865	4.290000	0.066700
0.068876	4.290000	0.067200
0.068888	4.290000	0.067200
0.068899	4.290000	0.067200
0.068911	4.220000	0.067000
0.068922	4.220000	0.067000
0.068934	4.220000	0.067000
0.068946	4.290000	0.066900
0.068957	4.290000	0.066900
0.068969	4.290000	0.066900
0.068980	4.290000	0.066900
0.068992	4.290000	0.066900
0.069003	4.290000	0.066900
0.069015	4.290000	0.066700
0.069026	4.290000	0.066700
0.069038	4.290000	0.066700
0.069050	4.290000	0.066800
0.069061	4.290000	0.066800
0.069073	4.290000	0.066800
0.069084	4.290000	0.066600
0.069096	4.290000	0.066600
0.069108	4.290000	0.066600
0.069120	4.290000	0.066800
0.069131	4.290000	0.066800
0.069143	4.290000	0.066700
0.069154	4.290000	0.066700
0.069166	4.290000	0.066700
0.069177	4.290000	0.066700
0.069189	4.290000	0.066700
0.069201	4.290000	0.066700
0.069212	4.290000	0.066700
0.069224	4.290000	0.066500
0.069235	4.290000	0.066500
0.069247	4.290000	0.066500
0.069259	4.290000	0.066800
0.069270	4.290000	0.066800
0.069282	4.290000	0.066800
0.069293	4.220000	0.066800
0.069305	4.220000	0.066800
0.069316	4.290000	0.067200
0.069328	4.290000	0.067200
0.069340	4.290000	0.067200
0.069351	4.290000	0.067200
0.069363	4.290000	0.067100
0.069374	4.290000	0.067100
0.069386	4.290000	0.067100
0.069397	4.290000	0.067100
0.069409	4.290000	0.067100
0.069421	4.290000	0.067100
0.069432	4.290000	0.066400
0.069444	4.290000	0.066400
0.069455	4.290000	0.066400
0.069467	4.290000	0.066400
0.069479	4.290000	0.066400
0.069491	4.290000	0.066500
0.069502	4.290000	0.066500
0.069514	4.290000	0.066500
0.069525	4.290000	0.066500
0.069537	4.290000	0.066200
0.069549	4.290000	0.066200
0.069560	4.290000	0.066200
0.069572	4.290000	0.067100
0.069584	4.290000	0.067100
0.069595	4.290000	0.067100
0.069607	4.290000	0.067200
0.069618	4.290000	0.067200
0.069630	4.290000	0.067200
0.069642	4.290000	0.067500
0.069653	4.290000	0.067500
0.069664	4.290000	0.067500
0.069676	4.290000	0.068700
0.069688	4.290000	0.068700
0.069699	4.290000	0.068700
0.069711	4.290000	0.067000
0.069723	4.290000	0.067000
0.069734	4.290000	0.067000
0.069746	4.220000	0.066400
0.069758	4.220000	0.066400
0.069769	4.220000	0.066400
0.069781	4.140000	0.065400
0.069792	4.140000	0.065400
0.069804	4.140000	0.065100
0.069815	4.140000	0.065100
0.069827	4.140000	0.065100
0.069839	4.140000	0.065100
0.069850	4.070000	0.065900
0.069862	4.070000	0.065900
0.069873	4.070000	0.065900
0.069885	4.140000	0.064600
0.069896	4.140000	0.064600
0.069908	4.140000	0.064600
0.069920	4.140000	0.064600
0.069931	4.140000	0.064600
0.069943	4.140000	0.064600
0.069954	4.140000	0.064300
0.069966	4.140000	0.064300
0.069978	4.140000	0.064800
0.069989	4.140000	0.064800
0.070001	4.140000	0.064800
0.070012	4.140000	0.064800
0.070024	4.070000	0.064700
0.070035	4.070000	0.064700
0.070047	4.070000	0.064700
0.070059	4.140000	0.064800
0.070070	4.140000	0.064800
0.070082	4.140000	0.064800
0.070093	4.070000	0.064600
0.070105	4.070000	0.064600
0.070116	4.070000	0.064600
0.070128	4.070000	0.064600
0.070140	4.070000	0.064600
0.070151	4.140000	0.065000
0.070163	4.140000	0.065000
0.070174	4.140000	0.065000
0.070186	4.140000	0.065000
0.070198	4.140000	0.064900
0.070209	4.140000	0.064900
0.070221	4.140000	0.064900
0.070232	4.070000	0.064700
0.070244	4.070000	0.064700
0.070255	4.070000	0.064700
0.070267	4.070000	0.064800
0.070278	4.070000	0.064800
0.070290	4.070000	0.064400
0.070302	4.070000	0.064400
0.070314	4.070000	0.064400
0.070325	4.070000	0.064600
0.070337	4.070000	0.064600
0.070348	4.070000	0.064600
0.070360	4.070000	0.064600
0.070372	4.140000	0.064400
0.070384	4.140000	0.064400
0.070395	4.140000	0.064400
0.070407	4.070000	0.064900
0.070418	4.070000	0.064900
0.070430	4.070000	0.064900
0.070441	4.290000	0.067400
0.070453	4.290000	0.067400
0.070465	4.360000	0.068400
0.070476	4.360000	0.068400
0.070488	4.360000	0.068400
0.070500	4.360000	0.068400
0.070511	4.360000	0.068200
0.070522	4.360000	0.068200
0.070534	4.360000	0.068200
0.070546	4.360000	0.068200
0.070557	4.360000	0.068200
0.070569	4.360000	0.068200
0.070580	4.360000	0.068200
0.070592	4.360000	0.068200
0.070603	4.360000	0.068200
0.070615	4.360000	0.067900
0.070627	4.360000	0.067900
0.070638	4.290000	0.067600
0.070650	4.290000	0.067600
0.070661	4.290000	0.067600
0.070673	4.290000	0.067600
0.070685	4.360000	0.068000
0.070696	4.360000	0.068000
0.070708	4.360000	0.068000
0.070720	4.360000	0.067900
0.070731	4.360000	0.067900
0.070743	4.360000	0.067900
0.070754	4.360000	0.067800
0.070766	4.360000	0.067800
0.070778	4.360000	0.067300
0.070790	4.360000	0.067300
0.070801	4.360000	0.067300
0.070813	4.290000	0.066900
0.070824	4.290000	0.066900
0.070835	4.290000	0.066900
0.070847	4.290000	0.066900
0.070859	4.290000	0.066900
0.070870	4.290000	0.066900
0.070882	4.290000	0.066900
0.070894	4.360000	0.068000
0.070905	4.360000	0.068000
0.070916	4.360000	0.068000
0.070928	4.360000	0.067800
0.070940	4.360000	0.067800
0.070951	4.360000	0.067700
0.070963	4.360000	0.067700
0.070974	4.360000	0.067700
0.070986	4.360000	0.068000
0.070998	4.360000	0.068000
0.071009	4.360000	0.068000
0.071021	4.360000	0.068000
0.071032	4.360000	0.067800
0.071044	4.360000	0.067800
0.071055	4.360000	0.067800
0.071067	4.290000	0.067700
0.071079	4.290000	0.067700
0.071090	4.290000	0.067700
0.071102	4.360000	0.067500
0.071113	4.360000	0.067500
0.071125	4.500000	0.070500
0.071137	4.500000	0.070500
0.071149	4.500000	0.070500
0.071160	4.570000	0.070600
0.071171	4.570000	0.070600
0.071183	4.570000	0.070600
0.071194	4.570000	0.070600
0.071206	4.570000	0.070200
0.071218	4.570000	0.070200
0.071229	4.570000	0.070200
0.071241	4.500000	0.070500
0.071252	4.500000	0.070500
0.071264	4.500000	0.070500
0.071276	4.570000	0.070100
0.071287	4.570000	0.070100
0.071299	4.570000	0.070600
0.071311	4.570000	0.070600
0.071322	4.570000	0.070600
0.071334	4.570000	0.070600
0.071345	4.570000	0.070600
0.071357	4.570000	0.070600
0.071368	4.570000	0.070600
0.071380	4.500000	0.070700
0.071392	4.500000	0.070700
0.071403	4.500000	0.070700
0.071415	4.570000	0.071000
0.071426	4.570000	0.071000
0.071438	4.570000	0.071000
0.071449	4.570000	0.071000
0.071461	4.570000	0.071000
0.071473	4.500000	0.070700
0.071485	4.500000	0.070700
0.071496	4.500000	0.070700
0.071508	4.570000	0.070200
0.071519	4.570000	0.070200
0.071531	4.570000	0.070200
0.071542	4.570000	0.070200
0.071554	4.570000	0.070600
0.071565	4.570000	0.070600
0.071577	4.570000	0.070600
0.071589	4.570000	0.070600
0.071600	4.570000	0.070600
0.071612	4.570000	0.070100
0.071623	4.570000	0.070100
0.071635	4.570000	0.070100
0.071647	4.500000	0.071300
0.071658	4.500000	0.071300
0.071670	4.500000	0.071300
0.071682	4.570000	0.071300
0.071693	4.570000	0.071300
0.071705	4.570000	0.071300
0.071717	4.570000	0.071300
0.071728	4.570000	0.070700
0.071740	4.570000	0.070700
0.071751	4.570000	0.070700
0.071763	4.500000	0.069900
0.071774	4.500000	0.069900
0.071786	4.570000	0.070000
0.071798	4.570000	0.070000
0.071809	4.570000	0.070000
0.071821	4.570000	0.071000
0.071833	4.570000	0.071000
0.071844	4.570000	0.071000
0.071856	4.570000	0.071000
0.071867	4.570000	0.071000
0.071879	4.570000	0.071000
0.071891	4.570000	0.071000
0.071902	4.570000	0.070700
0.071914	4.570000	0.070700
0.071926	4.570000	0.070700
0.071937	4.640000	0.071000
0.071949	4.640000	0.071000
0.071960	4.640000	0.070900
0.071972	4.640000	0.070900
0.071983	4.640000	0.070900
0.071995	4.640000	0.071100
0.072006	4.640000	0.071100
0.072018	4.640000	0.071100
0.072030	4.640000	0.071100
0.072041	4.570000	0.071100
0.072053	4.570000	0.071100
0.072064	4.570000	0.071100
0.072076	4.570000	0.071000
0.072087	4.570000	0.071000
0.072099	4.640000	0.070800
0.072111	4.640000	0.070800
0.072122	4.640000	0.070800
0.072134	4.570000	0.071300
0.072145	4.570000	0.071300
0.072157	4.570000	0.071300
0.072168	4.640000	0.071100
0.072180	4.640000	0.071100
0.072192	4.640000	0.071100
0.072204	4.640000	0.071100
0.072215	4.640000	0.071100
0.072226	4.640000	0.071100
0.072238	4.640000	0.071100
0.072250	4.570000	0.071200
0.072261	4.570000	0.071200
0.072273	4.570000	0.071100
0.072284	4.570000	0.071100
0.072296	4.570000	0.071100
0.072307	4.570000	0.071100
0.072319	4.570000	0.071100
0.072331	4.570000	0.071100
0.072342	4.570000	0.070900
0.072354	4.570000	0.070900
0.072365	4.570000	0.070900
0.072377	4.570000	0.070900
0.072388	4.640000	0.070300
0.072400	4.640000	0.070300
0.072411	4.640000	0.070300
0.072423	4.640000	0.070600
0.072435	4.640000	0.070600
0.072446	4.570000	0.071200
0.072458	4.570000	0.071200
0.072469	4.570000	0.071200
0.072481	4.640000	0.071300
0.072492	4.640000	0.071300
0.072504	4.640000	0.071300
0.072515	4.640000	0.071300
0.072527	4.360000	0.068100
0.072539	4.360000	0.068100
0.072550	4.360000	0.068100
0.072562	4.360000	0.068300
0.072573	4.360000	0.068300
0.072585	4.360000	0.068300
0.072596	4.360000	0.067900
0.072608	4.360000	0.067900
0.072620	4.360000	0.068200
0.072631	4.360000	0.068200
0.072643	4.360000	0.068200
0.072654	4.360000	0.068300
0.072666	4.360000	0.068300
0.072678	4.360000	0.068300
0.072689	4.360000	0.068300
0.072701	4.360000	0.068300
0.072712	4.360000	0.068300
0.072724	4.360000	0.068300
0.072735	4.360000	0.068200
0.072747	4.360000	0.068200
0.072759	4.360000	0.068200
0.072770	4.360000	0.068300
0.072782	4.360000	0.068300
0.072793	4.360000	0.068300
0.072805	4.360000	0.068300
0.072816	4.360000	0.068300
0.072828	4.430000	0.068000
0.072840	4.430000	0.068000
0.072851	4.430000	0.068000
0.072863	4.430000	0.068000
0.072874	4.360000	0.068500
0.072886	4.360000	0.068500
0.072897	4.360000	0.068500
0.072909	4.360000	0.069000
0.072921	4.360000	0.069000
0.072932	4.430000	0.069400
0.072944	4.430000	0.069400
0.072955	4.430000	0.069400
0.072967	4.360000	0.069500
0.072978	4.360000	0.069500
0.072990	4.360000	0.069500
0.073002	4.360000	0.069100
0.073013	4.360000	0.069100
0.073025	4.360000	0.069100
0.073036	4.360000	0.069100
0.073048	4.360000	0.069100
0.073059	4.360000	0.069100
0.073071	4.360000	0.069100
0.073083	4.360000	0.068700
0.073095	4.360000	0.068700
0.073106	4.360000	0.068400
0.073117	4.360000	0.068400
0.073129	4.360000	0.068400
0.073141	4.360000	0.068400
0.073152	4.360000	0.068400
0.073164	4.360000	0.068400
0.073175	4.360000	0.068400
0.073187	4.430000	0.068400
0.073199	4.430000	0.068400
0.073210	4.430000	0.068400
0.073221	4.570000	0.070800
0.073233	4.570000	0.070800
0.073245	4.570000	0.070800
0.073256	4.570000	0.070400
0.073268	4.570000	0.070400
0.073279	4.500000	0.070700
0.073291	4.500000	0.070700
0.073303	4.500000	0.070700
0.073314	4.570000	0.070200
0.073326	4.570000	0.070200
0.073337	4.570000	0.070200
0.073349	4.570000	0.070200
0.073360	4.570000	0.070100
0.073372	4.570000	0.070100
0.073383	4.570000	0.070100
0.073395	4.500000	0.070300
0.073407	4.500000	0.070300
0.073418	4.570000	0.071100
0.073430	4.570000	0.071100
0.073441	4.570000	0.071100
0.073453	4.570000	0.070100
0.073465	4.570000	0.070100
0.073476	4.570000	0.070100
0.073488	4.500000	0.069800
0.073499	4.500000	0.069800
0.073511	4.500000	0.069800
0.073522	4.500000	0.069800
0.073534	4.500000	0.071200
0.073546	4.500000	0.071200
0.073557	4.500000	0.071200
0.073569	4.570000	0.072200
0.073580	4.570000	0.072200
0.073592	4.570000	0.072900
0.073603	4.570000	0.072900
0.073615	4.570000	0.072900
0.073627	4.500000	0.069500
0.073638	4.500000	0.069500
0.073650	4.500000	0.069500
0.073661	4.500000	0.069700
0.073673	4.500000	0.069700
0.073684	4.500000	0.069700
0.073696	4.500000	0.069700
0.073708	4.500000	0.070300
0.073719	4.500000	0.070300
0.073731	4.500000	0.070300
0.073742	4.570000	0.069700
0.073754	4.570000	0.069700
0.073765	4.570000	0.069700
0.073777	4.570000	0.069700
0.073789	4.570000	0.069700
0.073800	4.500000	0.069500
0.073812	4.500000	0.069500
0.073823	4.500000	0.069500
0.073835	4.500000	0.069500
0.073846	4.570000	0.070100
0.073858	4.570000	0.070100
0.073870	4.570000	0.070100
0.073881	4.570000	0.069900
0.073893	4.570000	0.069900
0.073904	4.570000	0.069900
0.073916	4.500000	0.069100
0.073927	4.500000	0.069100
0.073939	4.500000	0.069500
0.073951	4.500000	0.069500
0.073962	4.500000	0.069500
0.073974	4.500000	0.069500
0.073985	4.500000	0.069500
0.073997	4.500000	0.069500
0.074009	4.500000	0.069500
0.074020	4.500000	0.069600
0.074032	4.500000	0.069600
0.074043	4.500000	0.069600
0.074055	4.500000	0.070000
0.074066	4.500000	0.070000
0.074078	4.500000	0.070600
0.074089	4.500000	0.070600
0.074101	4.500000	0.070600
0.074113	4.500000	0.071400
0.074124	4.500000	0.071400
0.074136	4.500000	0.071400
0.074147	4.500000	0.069800
0.074159	4.500000	0.069800
0.074171	4.500000	0.069800
0.074182	4.500000	0.069800
0.074194	4.500000	0.069900
0.074205	4.500000	0.069900
0.074217	4.500000	0.069900
0.074228	4.500000	0.070300
0.074240	4.500000	0.070300
0.074252	4.570000	0.072000
0.074263	4.570000	0.072000
0.074275	4.570000	0.072000
0.074286	4.500000	0.071000
0.074298	4.500000	0.071000
0.074309	4.500000	0.071000
0.074321	4.500000	0.071500
0.074333	4.500000	0.071500
0.074344	4.500000	0.071500
0.074356	4.500000	0.071500
0.074367	4.430000	0.070600
0.074379	4.430000	0.070600
0.074390	4.430000	0.070600
0.074402	4.500000	0.069600
0.074414	4.500000	0.069600
0.074425	4.500000	0.069300
0.074437	4.500000	0.069300
0.074448	4.500000	0.069300
0.074460	4.500000	0.069500
0.074471	4.500000	0.069500
0.074483	4.500000	0.069500
0.074495	4.500000	0.069500
0.074506	4.500000	0.069500
0.074518	4.500000	0.069500
0.074529	4.500000	0.069500
0.074541	4.500000	0.069000
0.074553	4.500000	0.069000
0.074564	4.500000	0.069000
0.074576	4.500000	0.069100
0.074587	4.500000	0.069100
0.074599	4.430000	0.068200
0.074610	4.430000	0.068200
0.074622	4.430000	0.068200
0.074633	4.430000	0.068800
0.074645	4.430000	0.068800
0.074657	4.430000	0.068800
0.074668	4.430000	0.068800
0.074680	4.430000	0.068700
0.074691	4.430000	0.068700
0.074703	4.430000	0.068700
0.074715	4.430000	0.068800
0.074726	4.430000	0.068800
0.074738	4.430000	0.068800
0.074749	4.430000	0.068800
0.074761	4.430000	0.068800
0.074772	4.500000	0.069000
0.074784	4.500000	0.069000
0.074796	4.500000	0.069000
0.074807	4.430000	0.068600
0.074819	4.430000	0.068600
0.074830	4.430000	0.068600
0.074842	4.430000	0.068600
0.074853	4.430000	0.068800
0.074865	4.430000	0.068800
0.074877	4.430000	0.068800
0.074888	4.430000	0.069000
0.074900	4.430000	0.069000
0.074911	4.430000	0.068700
0.074923	4.430000	0.068700
0.074934	4.430000	0.068700
0.074946	4.430000	0.068800
0.074958	4.430000	0.068800
0.074969	4.430000	0.068800
0.074981	4.430000	0.069000
0.074992	4.430000	0.069000
0.075004	4.430000	0.069000
0.075015	4.430000	0.069000
0.075027	4.430000	0.068900
0.075039	4.430000	0.068900
0.075050	4.430000	0.068900
0.075062	4.430000	0.068700
0.075073	4.430000	0.068700
0.075085	4.430000	0.069100
0.075096	4.430000	0.069100
0.075108	4.430000	0.069100
0.075120	4.430000	0.069100
0.075131	4.430000	0.069100
0.075143	4.430000	0.069100
0.075154	4.430000	0.069500
0.075166	4.430000	0.069500
0.075177	4.430000	0.069500
0.075189	4.430000	0.069500
0.075201	4.430000	0.069200
0.075212	4.430000	0.069200
0.075224	4.430000	0.069200
0.075235	4.430000	0.069200
0.075247	4.430000	0.069200
0.075258	4.430000	0.070100
0.075270	4.430000	0.070100
0.075282	4.430000	0.070100
0.075293	4.500000	0.072000
0.075305	4.500000	0.072000
0.075316	4.500000	0.072000
0.075328	4.500000	0.071100
0.075340	4.500000	0.071100
0.075351	4.500000	0.071100
0.075363	4.500000	0.071100
0.075374	4.500000	0.069700
0.075386	4.500000	0.069700
0.075397	4.500000	0.069700
0.075409	4.500000	0.069700
0.075421	4.500000	0.069700
0.075432	4.500000	0.069800
0.075444	4.500000	0.069800
0.075455	4.500000	0.069800
0.075467	4.500000	0.070600
0.075478	4.500000	0.070600
0.075490	4.500000	0.070600
0.075502	4.500000	0.070600
0.075513	4.500000	0.070700
0.075525	4.500000	0.070700
0.075536	4.500000	0.070700
0.075548	4.500000	0.070700
0.075559	4.500000	0.070700
0.075571	4.500000	0.070900
0.075583	4.500000	0.070900
0.075594	4.500000	0.070900
0.075606	4.500000	0.071000
0.075617	4.500000	0.071000
0.075629	4.500000	0.071000
0.075640	4.500000	0.071400
0.075652	4.500000	0.071400
0.075664	4.500000	0.071400
0.075675	4.500000	0.071400
0.075687	4.500000	0.071200
0.075698	4.500000	0.071200
0.075710	4.500000	0.071200
0.075721	4.500000	0.070100
0.075733	4.500000	0.070100
0.075745	4.500000	0.070200
0.075756	4.500000	0.070200
0.075768	4.500000	0.070200
0.075779	4.500000	0.069300
0.075791	4.500000	0.069300
0.075803	4.500000	0.069300
0.075814	4.500000	0.069200
0.075826	4.500000	0.069200
0.075837	4.500000	0.069200
0.075849	4.500000	0.069200
0.075861	4.500000	0.069200
0.075872	4.500000	0.069200
0.075884	4.500000	0.069200
0.075895	4.500000	0.069400
0.075907	4.500000	0.069400
0.075918	4.500000	0.069700
0.075930	4.500000	0.069700
0.075942	4.500000	0.069700
0.075953	4.500000	0.069700
0.075965	4.500000	0.069700
0.075976	4.500000	0.069700
0.075988	4.500000	0.069400
0.075999	4.500000	0.069400
0.076011	4.500000	0.069400
0.076023	4.500000	0.069400
0.076034	4.500000	0.069600
0.076046	4.500000	0.069600
0.076057	4.500000	0.069600
0.076069	4.500000	0.069100
0.076080	4.500000	0.069100
0.076092	4.500000	0.069100
0.076104	4.500000	0.069100
0.076115	4.500000	0.069100
0.076127	4.500000	0.069300
0.076138	4.500000	0.069300
0.076150	4.500000	0.069300
0.076161	4.500000	0.069300
0.076173	4.500000	0.069300
0.076185	4.500000	0.069300
0.076196	4.500000	0.069300
0.076208	4.500000	0.069700
0.076219	4.500000	0.069700
0.076231	4.500000	0.069600
0.076242	4.500000	0.069600
0.076254	4.500000	0.069600
0.076266	4.430000	0.069000
0.076277	4.430000	0.069000
0.076289	4.430000	0.069000
0.076300	4.500000	0.069500
0.076312	4.500000	0.069500
0.076324	4.500000	0.069500
0.076335	4.500000	0.069500
0.076347	4.500000	0.069500
0.076358	4.500000	0.069500
0.076370	4.500000	0.069500
0.076381	4.500000	0.069300
0.076393	4.500000	0.069300
0.076405	4.500000	0.069700
0.076416	4.500000	0.069700
0.076428	4.500000	0.069700
0.076439	4.500000	0.069300
0.076451	4.500000	0.069300
0.076462	4.500000	0.069300
0.076474	4.500000	0.069000
0.076486	4.500000	0.069000
0.076497	4.500000	0.069000
0.076509	4.500000	0.069000
0.076520	4.500000	0.069800
0.076532	4.500000	0.069800
0.076543	4.500000	0.069800
0.076555	4.500000	0.069600
0.076567	4.500000	0.069600
0.076578	4.500000	0.069500
0.076590	4.500000	0.069500
0.076601	4.500000	0.069500
0.076613	4.500000	0.069400
0.076624	4.500000	0.069400
0.076636	4.500000	0.069400
0.076648	4.430000	0.068200
0.076659	4.430000	0.068200
0.076671	4.430000	0.068200
0.076682	4.430000	0.068200
0.076694	4.430000	0.068200
0.076705	4.430000	0.068200
0.076717	4.430000	0.068200
0.076729	4.360000	0.067100
0.076740	4.360000	0.067100
0.076752	4.290000	0.067500
0.076763	4.290000	0.067500
0.076775	4.290000	0.067500
0.076786	4.360000	0.067500
0.076798	4.360000	0.067500
0.076810	4.360000	0.067500
0.076821	4.360000	0.067200
0.076833	4.360000	0.067200
0.076844	4.360000	0.067200
0.076856	4.360000	0.067200
0.076867	4.360000	0.066500
0.076879	4.360000	0.066500
0.076891	4.360000	0.066500
0.076902	4.360000	0.066500
0.076914	4.360000	0.066500
0.076925	4.360000	0.067300
0.076937	4.360000	0.067300
0.076949	4.360000	0.067300
0.076960	4.290000	0.067500
0.076972	4.290000	0.067500
0.076983	4.290000	0.067500
0.076995	4.290000	0.067500
0.077006	4.290000	0.067300
0.077018	4.290000	0.067300
0.077030	4.290000	0.067300
0.077041	4.360000	0.067500
0.077053	4.360000	0.067500
0.077064	4.360000	0.067800
0.077076	4.360000	0.067800
0.077087	4.360000	0.067800
0.077099	4.290000	0.067500
0.077111	4.290000	0.067500
0.077122	4.290000	0.067500
0.077134	7.290000	0.111200
0.077145	7.290000	0.111200
0.077157	7.290000	0.111200
0.077168	7.290000	0.111200
0.077180	11.440000	0.147600
0.077192	11.440000	0.147600
0.077203	11.440000	0.147600
0.077215	9.720000	0.127100
0.077226	9.720000	0.127100
0.077238	9.790000	0.128400
0.077249	9.790000	0.128400
0.077261	9.790000	0.128400
0.077273	6.720000	0.116100
0.077284	6.720000	0.116100
0.077296	6.720000	0.116100
0.077307	6.720000	0.116100
0.077319	3.790000	0.059600
0.077330	3.790000	0.059600
0.077342	3.790000	0.059600
0.077354	3.710000	0.059700
0.077365	3.710000	0.059700
0.077377	3.710000	0.059700
0.077388	3.710000	0.059700
0.077400	3.710000	0.059700
0.077411	3.710000	0.059700
0.077423	3.710000	0.059700
0.077435	3.710000	0.059700
0.077446	3.790000	0.059800
0.077458	3.790000	0.059800
0.077469	3.790000	0.059800
0.077481	3.790000	0.059800
0.077493	3.790000	0.059800
0.077504	3.790000	0.059800
0.077516	3.790000	0.059800
0.077527	3.790000	0.059700
0.077539	3.790000	0.059700
0.077550	3.710000	0.059700
0.077562	3.710000	0.059700
0.077574	3.710000	0.059700
0.077585	3.710000	0.059700
0.077597	3.710000	0.059700
0.077608	3.710000	0.059700
0.077620	3.710000	0.059000
0.077631	3.710000	0.059000
0.077643	3.710000	0.059000
0.077654	3.710000	0.059000
0.077666	3.790000	0.059900
0.077678	3.790000	0.059900
0.077689	3.790000	0.059900
0.077701	3.790000	0.059600
0.077712	3.790000	0.059600
0.077724	3.790000	0.059800
0.077736	3.790000	0.059800
0.077747	3.790000	0.059800
0.077759	3.710000	0.059700
0.077770	3.710000	0.059700
0.077782	3.710000	0.059700
0.077793	3.710000	0.059700
0.077805	3.710000	0.059400
0.077817	3.710000	0.059400
0.077828	3.710000	0.059400
0.077840	3.790000	0.059700
0.077851	3.790000	0.059700
0.077863	3.710000	0.059900
0.077874	3.710000	0.059900
0.077886	3.710000	0.059900
0.077898	3.790000	0.060000
0.077909	3.790000	0.060000
0.077921	3.790000	0.060000
0.077932	3.790000	0.060000
0.077944	3.790000	0.060000
0.077955	3.790000	0.060000
0.077967	3.790000	0.060000
0.077979	3.790000	0.060100
0.077990	3.790000	0.060100
0.078002	3.790000	0.060100
0.078013	3.710000	0.060000
0.078025	3.710000	0.060000
0.078036	3.790000	0.060000
0.078048	3.790000	0.060000
0.078060	3.790000	0.060000
0.078071	3.790000	0.059900
0.078083	3.790000	0.059900
0.078094	3.790000	0.059900
0.078106	3.790000	0.060000
0.078117	3.790000	0.060000
0.078129	3.790000	0.060000
0.078141	3.790000	0.060000
0.078152	3.790000	0.060300
0.078164	3.790000	0.060300
0.078176	3.790000	0.060300
0.078187	3.790000	0.060000
0.078199	3.790000	0.060000
0.078210	3.790000	0.059900
0.078222	3.790000	0.059900
0.078233	3.790000	0.059900
0.078245	3.710000	0.059800
0.078257	3.710000	0.059800
0.078268	3.710000	0.059800
0.078280	3.790000	0.059600
0.078291	3.790000	0.059600
0.078303	3.790000	0.059600
0.078315	3.790000	0.059600
0.078326	3.790000	0.059700
0.078337	3.790000	0.059700
0.078349	3.790000	0.059700
0.078361	3.790000	0.060000
0.078372	3.790000	0.060000
0.078384	3.790000	0.060100
0.078395	3.790000	0.060100
0.078407	3.790000	0.060100
0.078419	3.710000	0.060000
0.078430	3.710000	0.060000
0.078442	3.710000	0.060000
0.078453	3.710000	0.060000
0.078465	3.790000	0.060000
0.078476	3.790000	0.060000
0.078488	3.790000	0.060000
0.078499	3.710000	0.060100
0.078511	3.710000	0.060100
0.078523	3.790000	0.060100
0.078534	3.790000	0.060000
