#Measurement data
#2022-08-22 14:42:21

#Time (days)	Power (W)	Current (A)
0.00000171	35.540000	0.272000
0.00001495	35.540000	0.272000
0.00006157	33.400000	0.261400
0.00014492	15.090000	0.083500
0.00014709	15.090000	0.083500
0.00016605	15.090000	0.083500
0.00017983	15.090000	0.083500
0.00021675	15.090000	0.083400
0.00021875	15.090000	0.083600
0.00025843	15.090000	0.083600
0.00029528	15.090000	0.083100
0.00029733	15.020000	0.083100
0.00037462	15.020000	0.082800
0.00049271	15.020000	0.082900
0.00049492	15.020000	0.084400
0.00051323	15.020000	0.084400
0.00052678	14.870000	0.086700
0.00052865	14.870000	0.086700
0.00054788	14.870000	0.086700
0.00054998	14.870000	0.086700
0.00059424	14.870000	0.086700
0.00063811	14.940000	0.086800
0.00067532	15.090000	0.082500
0.00071214	15.090000	0.082500
0.00086528	15.090000	0.082500
0.00086738	15.090000	0.082200
0.00087183	15.020000	0.082300
0.00088339	15.020000	0.082300
0.00089508	15.020000	0.082300
0.00090671	15.020000	0.082300
0.00091811	15.020000	0.081900
0.00092975	15.020000	0.081900
0.00094131	15.090000	0.081900
0.00095315	15.090000	0.082200
0.00096490	15.090000	0.082200
0.00097682	15.020000	0.082100
0.00098831	15.020000	0.082100
0.00099992	15.020000	0.082100
0.00101153	25.820000	0.218700
0.00102278	25.820000	0.218700
0.00104686	25.820000	0.218700
0.00104922	17.800000	0.149800
0.00105741	17.800000	0.149800
0.00110465	17.800000	0.149800
0.00110681	16.370000	0.139200
0.00114981	17.450000	0.147100
0.00115192	36.040000	0.346600
0.00116130	36.040000	0.346600
0.00120785	36.040000	0.346600
0.00120969	55.710000	0.461500
0.00121910	56.140000	0.462100
0.00123075	56.140000	0.462100
0.00124226	56.140000	0.462100
0.00125378	56.140000	0.462100
0.00126567	54.860000	0.476100
0.00127699	54.860000	0.476100
0.00128869	56.000000	0.473700
0.00130010	56.000000	0.473700
0.00131171	56.000000	0.473700
0.00132333	54.140000	0.450300
0.00133505	54.140000	0.450300
0.00134649	54.140000	0.450300
0.00135804	52.280000	0.457400
0.00136964	52.280000	0.457400
0.00138124	52.280000	0.457400
0.00139279	52.280000	0.457400
0.00140424	54.710000	0.477600
0.00141591	54.710000	0.477600
0.00142757	54.710000	0.477600
0.00143936	54.710000	0.477600
0.00148552	54.710000	0.477600
0.00148785	57.290000	0.492500
0.00149722	58.650000	0.505900
0.00150854	58.650000	0.505900
0.00152015	58.650000	0.505900
0.00153172	60.860000	0.526800
0.00154309	60.860000	0.526800
0.00155476	60.860000	0.526800
0.00156633	60.860000	0.526800
0.00157823	63.300000	0.541100
0.00158949	63.300000	0.541100
0.00160133	64.010000	0.543000
0.00161259	64.010000	0.543000
0.00162426	64.010000	0.543000
0.00163567	63.650000	0.548400
0.00164728	63.650000	0.548400
0.00165892	63.650000	0.548400
0.00167052	63.220000	0.551700
0.00168231	63.220000	0.551700
0.00172896	63.220000	0.551700
0.00183541	63.720000	0.545500
0.00183788	56.570000	0.472300
0.00194959	51.210000	0.423000
0.00195123	50.850000	0.439000
0.00196003	50.850000	0.439000
0.00197188	50.850000	0.439000
0.00198328	55.860000	0.407800
0.00199484	55.860000	0.407800
0.00200674	55.860000	0.407800
0.00201811	47.700000	0.370400
0.00202966	47.700000	0.370400
0.00204106	47.700000	0.370400
0.00205279	47.700000	0.370400
0.00206427	48.630000	0.403300
0.00207593	48.630000	0.403300
0.00208750	48.630000	0.403300
0.00209920	54.140000	0.461800
0.00211069	54.140000	0.461800
0.00212226	55.930000	0.466600
0.00213409	55.930000	0.466600
0.00214538	55.930000	0.466600
0.00216230	55.930000	0.466600
0.00218159	55.930000	0.466600
0.00218345	55.930000	0.466600
0.00219152	46.990000	0.404700
0.00220303	46.990000	0.404700
0.00221490	46.990000	0.404700
0.00222656	46.990000	0.404700
0.00223933	47.200000	0.406200
0.00224936	47.200000	0.406200
0.00226113	47.200000	0.406200
0.00227280	49.200000	0.424600
0.00228421	49.200000	0.424600
0.00229594	50.560000	0.436200
0.00230770	50.560000	0.436200
0.00231897	50.560000	0.436200
0.00233053	52.140000	0.455700
0.00234237	52.140000	0.455700
0.00235368	52.140000	0.455700
0.00236522	54.350000	0.473000
0.00237689	54.350000	0.473000
0.00238847	54.350000	0.473000
0.00240003	54.350000	0.473000
0.00241294	56.070000	0.484500
0.00242483	56.070000	0.484500
0.00243539	58.570000	0.504000
0.00244781	58.570000	0.504000
0.00245858	58.570000	0.504000
0.00248163	61.010000	0.523900
0.00248389	61.010000	0.523900
0.00253922	61.010000	0.523900
0.00254127	64.440000	0.556800
0.00255064	64.440000	0.556800
0.00256231	64.440000	0.556800
0.00257382	64.440000	0.556800
0.00258530	64.580000	0.561200
0.00263168	64.580000	0.561200
0.00263382	65.080000	0.559400
0.00264332	65.230000	0.564200
0.00265484	65.230000	0.564200
0.00266646	65.230000	0.564200
0.00268963	65.150000	0.562000
0.00269185	65.150000	0.562000
0.00270120	65.150000	0.562000
0.00271285	65.150000	0.562000
0.00273600	69.590000	0.570600
0.00277748	61.510000	0.515200
0.00277978	61.510000	0.515200
0.00278214	61.510000	0.515200
0.00280535	61.510000	0.515200
0.00281936	61.510000	0.515200
0.00282160	64.580000	0.548600
0.00286307	64.580000	0.548600
0.00307366	64.580000	0.547200
0.00307583	64.150000	0.531300
0.00311837	64.150000	0.531300
0.00312057	69.660000	0.596600
0.00314122	70.230000	0.604200
0.00314336	70.230000	0.604200
0.00315258	70.230000	0.604200
0.00316414	70.160000	0.597100
0.00317565	70.160000	0.597100
0.00318733	70.160000	0.597100
0.00319889	70.160000	0.597100
0.00321044	70.090000	0.602800
0.00322234	70.090000	0.602800
0.00323362	70.090000	0.602800
0.00324527	70.160000	0.607000
0.00329243	70.160000	0.607000
0.00329449	69.880000	0.605100
0.00330310	69.880000	0.601100
0.00336093	69.880000	0.601100
0.00336299	69.880000	0.598800
0.00337244	69.880000	0.598800
0.00338425	69.800000	0.598700
0.00339547	69.800000	0.598700
0.00340727	69.730000	0.599100
0.00341888	69.730000	0.599100
0.00343037	69.730000	0.599100
0.00344178	69.880000	0.601800
0.00345361	69.880000	0.601800
0.00346508	69.880000	0.601800
0.00347670	69.880000	0.597000
0.00348822	69.880000	0.597000
0.00349970	69.880000	0.597000
0.00351259	69.800000	0.595500
0.00352381	69.800000	0.595500
0.00353515	69.800000	0.595500
0.00354694	69.800000	0.595500
0.00355860	69.800000	0.591400
0.00356992	69.800000	0.591400
0.00358208	69.950000	0.598300
0.00359270	69.950000	0.598300
0.00363885	69.950000	0.598300
0.00364093	69.950000	0.598300
0.00366220	69.800000	0.601800
0.00367627	69.800000	0.601800
0.00367845	69.800000	0.601800
0.00369675	65.730000	0.550700
0.00369914	65.730000	0.550700
0.00370819	65.730000	0.550700
0.00371993	65.730000	0.550700
0.00373142	56.140000	0.466100
0.00374307	56.140000	0.466100
0.00375451	61.860000	0.536400
0.00376640	61.860000	0.536400
0.00377753	61.860000	0.536400
0.00378925	62.510000	0.551500
0.00380078	62.510000	0.551500
0.00381291	62.510000	0.551500
0.00382470	62.370000	0.546300
0.00384742	62.370000	0.546300
0.00384946	62.370000	0.546300
0.00390606	62.370000	0.546300
0.00390824	62.290000	0.534500
0.00391682	62.290000	0.534500
0.00393999	62.290000	0.530000
0.00398858	62.290000	0.530000
0.00399130	63.150000	0.538400
0.00400988	58.570000	0.487200
0.00401190	58.570000	0.487200
0.00405559	58.570000	0.487200
0.00405773	64.650000	0.541400
0.00406719	69.950000	0.598800
0.00407869	69.950000	0.598800
0.00412516	69.950000	0.598800
0.00412728	69.950000	0.598800
0.00414859	69.880000	0.608300
0.00415072	69.880000	0.608300
0.00416008	69.880000	0.608300
0.00417177	69.800000	0.601600
0.00418319	69.800000	0.601600
0.00419514	69.800000	0.601600
0.00424116	69.800000	0.601600
0.00424336	69.950000	0.595700
0.00429898	69.950000	0.595700
0.00430089	69.800000	0.589200
0.00431065	70.020000	0.599500
0.00432255	70.020000	0.599500
0.00433410	70.020000	0.599500
0.00434560	70.020000	0.599500
0.00435741	70.020000	0.599500
0.00440329	70.020000	0.599500
0.00441679	69.590000	0.603600
0.00441880	69.590000	0.603600
0.00442631	69.590000	0.603600
0.00447274	69.590000	0.603600
0.00447458	69.660000	0.601200
0.00448470	69.520000	0.601100
0.00453103	69.520000	0.601100
0.00456785	69.370000	0.600200
0.00456970	69.370000	0.600000
0.00457704	69.370000	0.600000
0.00460097	69.370000	0.600000
0.00463727	69.370000	0.600000
0.00463909	69.660000	0.604600
0.00464659	69.660000	0.604600
0.00469258	66.510000	0.557000
0.00472889	62.080000	0.540900
0.00473113	64.370000	0.558500
0.00473905	64.370000	0.558500
0.00479736	64.220000	0.556400
0.00479919	63.800000	0.554100
0.00485753	63.800000	0.551700
0.00485940	63.800000	0.551700
0.00491302	63.870000	0.550800
0.00491466	63.720000	0.549000
0.00492402	63.720000	0.549000
0.00494760	62.940000	0.531800
0.00494942	62.940000	0.531800
0.00495876	62.940000	0.531800
0.00497028	63.720000	0.535200
0.00500603	63.720000	0.535200
0.00500808	69.230000	0.596800
0.00501694	69.230000	0.596800
0.00504006	69.450000	0.598700
0.00514652	69.450000	0.598700
0.00518319	69.160000	0.594300
0.00518530	68.950000	0.588500
0.00526028	68.950000	0.588500
0.00526273	69.020000	0.594600
0.00527186	69.020000	0.594600
0.00528343	69.160000	0.591000
0.00532978	69.160000	0.591000
0.00533196	69.300000	0.591600
0.00534204	69.300000	0.591600
0.00535355	69.300000	0.591600
0.00537689	69.160000	0.592500
0.00539091	68.950000	0.590500
0.00539309	68.950000	0.590500
0.00541127	68.950000	0.590500
0.00542530	68.950000	0.591700
0.00543898	68.950000	0.591700
0.00545250	68.950000	0.591700
0.00545469	68.660000	0.589700
0.00545762	68.660000	0.589700
0.00546904	68.660000	0.589700
0.00549223	68.730000	0.593300
0.00549417	68.730000	0.593300
0.00555036	68.730000	0.593300
0.00555244	68.730000	0.594100
0.00557397	68.660000	0.599700
0.00561090	68.660000	0.599700
0.00565926	64.300000	0.542500
0.00591661	60.790000	0.533300
0.00591861	56.430000	0.462900
0.00595584	56.430000	0.462900
0.00599277	67.660000	0.582200
0.00600662	67.660000	0.582200
0.00600882	67.660000	0.582200
0.00604841	68.660000	0.592700
0.00605067	68.590000	0.592000
0.00606015	68.590000	0.592000
0.00607169	68.590000	0.592000
0.00609473	68.520000	0.588300
0.00609691	68.520000	0.588300
0.00610649	68.520000	0.588300
0.00611803	68.440000	0.585900
0.00624530	68.440000	0.585900
0.00635169	68.370000	0.590200
0.00659685	68.520000	0.596500
0.00663370	64.800000	0.545300
0.00663591	61.940000	0.527700
0.00663861	63.300000	0.540500
0.00665012	63.300000	0.540500
0.00666174	63.300000	0.534500
0.00667341	63.300000	0.534500
0.00668499	63.300000	0.534500
0.00669648	63.300000	0.534500
0.00670815	63.220000	0.536000
0.00672024	63.220000	0.536000
0.00673204	63.220000	0.536000
0.00677735	63.510000	0.544700
0.00677918	63.370000	0.550100
0.00678903	63.370000	0.550100
0.00680067	63.370000	0.550100
0.00681204	63.300000	0.551700
0.00682399	63.300000	0.551700
0.00683553	63.300000	0.551700
0.00684704	62.650000	0.533300
0.00685865	62.650000	0.533300
0.00687032	62.650000	0.533300
0.00688169	56.860000	0.468300
0.00689331	56.860000	0.468300
0.00690520	56.860000	0.468300
0.00691679	68.160000	0.584300
0.00693981	68.160000	0.584300
0.00697683	68.160000	0.584300
0.00697902	68.660000	0.594900
0.00698584	68.520000	0.591400
0.00703218	68.520000	0.591400
0.00703418	68.440000	0.580000
0.00704422	68.440000	0.580000
0.00706735	68.440000	0.583600
0.00706917	68.440000	0.583600
0.00707860	68.440000	0.583600
0.00709010	68.440000	0.581500
0.00710191	68.440000	0.581500
0.00714808	68.440000	0.581500
0.00715013	68.520000	0.585400
0.00715956	68.520000	0.585400
0.00717216	68.520000	0.585400
0.00718278	68.520000	0.585400
0.00719440	68.520000	0.591400
0.00724069	68.590000	0.595200
0.00724278	68.590000	0.595200
0.00725223	68.590000	0.595200
0.00726392	68.590000	0.595200
0.00727516	68.590000	0.595200
0.00728795	68.590000	0.595200
0.00729890	68.440000	0.585300
0.00732177	68.520000	0.586300
0.00732360	68.520000	0.586300
0.00733329	68.520000	0.586300
0.00735646	68.520000	0.586300
0.00735848	68.520000	0.586300
0.00736784	68.520000	0.587300
0.00737937	68.520000	0.587300
0.00739119	68.520000	0.587300
0.00740282	68.440000	0.593100
0.00741416	68.440000	0.593100
0.00742563	68.440000	0.593100
0.00743745	68.370000	0.593800
0.00744911	68.370000	0.593800
0.00746073	68.370000	0.593800
0.00747227	68.370000	0.591800
0.00748373	68.370000	0.591800
0.00749523	68.370000	0.591800
0.00750690	64.300000	0.530700
0.00751852	64.300000	0.530700
0.00753009	64.300000	0.530700
0.00754189	55.070000	0.443000
0.00755329	55.070000	0.443000
0.00756501	55.070000	0.443000
0.00757631	60.650000	0.513200
0.00765773	60.650000	0.513200
0.00767168	61.010000	0.526000
0.00770862	61.010000	0.526000
0.00771072	61.010000	0.526700
0.00771549	61.010000	0.526700
0.00772706	61.010000	0.526700
0.00773860	61.010000	0.526700
0.00775039	60.860000	0.527000
0.00776190	60.860000	0.527000
0.00777361	60.860000	0.527000
0.00778499	60.790000	0.523900
0.00779663	60.790000	0.523900
0.00780852	56.000000	0.462600
0.00782002	56.000000	0.462600
0.00783167	56.000000	0.462600
0.00784343	56.000000	0.462600
0.00785478	63.580000	0.529800
0.00786672	63.580000	0.529800
0.00787968	63.580000	0.529800
0.00788999	68.230000	0.586200
0.00790130	68.230000	0.586200
0.00791296	68.230000	0.586200
0.00792421	68.590000	0.596000
0.00793603	68.590000	0.596000
0.00794731	68.590000	0.596000
0.00795885	68.590000	0.593200
0.00797052	68.590000	0.593200
0.00798223	68.590000	0.593200
0.00799350	68.590000	0.593200
0.00800522	68.590000	0.593200
0.00801669	68.590000	0.593200
0.00802815	68.590000	0.591800
0.00804001	68.590000	0.591800
0.00805138	68.590000	0.591800
0.00806309	68.440000	0.589300
0.00807471	68.440000	0.589300
0.00808624	68.440000	0.589300
0.00809788	68.440000	0.586700
0.00810933	68.440000	0.586700
0.00812147	68.440000	0.586700
0.00813284	68.300000	0.583400
0.00814453	68.300000	0.583400
0.00815679	68.300000	0.583400
0.00816767	68.230000	0.581800
0.00817899	68.230000	0.581800
0.00819031	68.230000	0.581800
0.00820198	68.230000	0.580700
0.00821351	68.230000	0.580700
0.00822515	68.230000	0.580700
0.00823654	68.300000	0.583400
0.00824826	68.300000	0.583400
0.00826010	68.300000	0.583400
0.00827169	68.230000	0.584600
0.00828316	68.230000	0.584600
0.00829459	68.230000	0.591300
0.00830640	68.230000	0.591300
0.00831797	68.230000	0.591300
0.00832939	68.230000	0.591300
0.00834096	68.230000	0.588800
0.00835347	68.230000	0.588800
0.00836486	68.230000	0.588800
0.00837664	68.230000	0.589500
0.00838725	68.230000	0.589500
0.00839887	68.230000	0.589500
0.00841056	68.160000	0.588100
0.00842196	68.160000	0.588100
0.00843381	68.160000	0.588100
0.00844522	68.520000	0.585700
0.00845690	68.520000	0.585700
0.00846825	63.940000	0.529300
0.00847992	63.940000	0.529300
0.00849135	63.940000	0.529300
0.00850282	63.940000	0.529300
0.00851458	61.150000	0.532200
0.00852619	61.150000	0.532200
0.00853767	61.150000	0.532200
0.00854931	63.010000	0.543300
0.00856128	63.010000	0.543300
0.00857269	63.010000	0.543300
0.00858525	62.870000	0.536600
0.00859575	62.870000	0.536600
0.00860719	62.870000	0.536600
0.00861881	63.010000	0.549700
0.00863035	63.010000	0.549700
0.00864181	63.010000	0.549700
0.00865360	63.010000	0.546000
0.00866527	63.010000	0.546000
0.00867733	63.010000	0.546000
0.00868810	62.940000	0.545500
0.00869981	62.940000	0.545500
0.00871152	62.940000	0.545500
0.00872295	62.940000	0.545500
0.00873453	62.940000	0.545500
0.00874598	62.940000	0.545500
0.00875774	62.650000	0.518700
0.00876925	62.650000	0.518700
0.00878120	62.650000	0.518700
0.00879282	57.000000	0.462900
0.00880419	57.000000	0.462900
0.00881569	57.000000	0.462900
0.00882762	68.370000	0.577300
0.00883891	68.370000	0.577300
0.00885082	68.370000	0.577300
0.00886269	68.520000	0.579600
0.00887345	68.520000	0.579600
0.00888539	68.520000	0.579600
0.00889663	68.520000	0.579300
0.00890811	68.520000	0.579300
0.00891969	68.520000	0.579300
0.00893127	68.440000	0.587400
0.00894285	68.440000	0.587400
0.00895443	68.370000	0.583500
0.00896612	68.370000	0.583500
0.00897749	68.370000	0.583500
0.00898970	68.370000	0.583500
0.00900101	68.230000	0.581100
0.00901293	68.230000	0.581100
0.00905903	68.230000	0.581100
0.00906137	68.090000	0.584700
0.00907051	68.090000	0.588100
0.00908199	68.090000	0.588100
0.00910514	68.090000	0.588100
0.00910682	68.020000	0.586700
0.00911650	68.020000	0.586700
0.00912800	68.090000	0.585600
0.00913985	68.090000	0.585600
0.00915120	68.090000	0.585600
0.00916279	68.090000	0.585600
0.00917431	68.090000	0.585900
0.00918581	68.090000	0.585900
0.00919757	68.090000	0.585900
0.00920894	68.020000	0.583900
0.00922076	68.020000	0.583900
0.00923225	68.020000	0.583900
0.00924400	67.940000	0.581000
0.00925547	67.940000	0.581000
0.00926684	67.940000	0.581000
0.00931337	68.020000	0.580800
0.00931547	67.940000	0.584000
0.00932491	67.940000	0.584000
0.00933634	67.940000	0.584000
0.00934786	67.870000	0.583500
0.00935953	67.870000	0.583500
0.00937126	67.870000	0.583500
0.00938269	67.870000	0.582400
0.00939451	67.870000	0.582400
0.00940610	67.870000	0.582400
0.00941748	62.870000	0.520600
0.00942912	62.870000	0.520600
0.00944065	62.870000	0.520600
0.00945226	62.870000	0.520600
0.00946377	62.870000	0.520600
0.00947537	62.870000	0.520600
0.00948737	60.000000	0.515500
0.00949904	60.000000	0.515500
0.00951108	60.000000	0.515500
0.00952233	60.510000	0.522300
0.00953356	60.510000	0.522300
0.00954487	60.510000	0.522300
0.00955641	60.580000	0.518700
0.00956809	60.580000	0.518700
0.00957962	60.580000	0.518700
0.00959105	60.510000	0.517400
0.00960271	60.510000	0.517400
0.00961428	60.510000	0.517700
0.00962589	60.510000	0.517700
0.00963753	60.510000	0.517700
0.00964896	60.510000	0.517700
0.00966052	60.510000	0.515500
0.00967216	60.510000	0.515500
0.00968383	60.510000	0.515500
0.00969527	60.510000	0.513900
0.00970709	60.510000	0.513900
0.00971888	60.510000	0.513900
0.00973053	60.430000	0.520400
0.00974204	60.430000	0.520400
0.00975387	60.430000	0.520400
0.00976552	60.430000	0.520500
0.00977670	60.430000	0.520500
0.00978811	60.220000	0.527400
0.00983443	60.220000	0.527400
0.00983669	60.290000	0.523400
0.00984601	60.290000	0.523400
0.00985744	60.290000	0.523400
0.00986918	60.360000	0.521500
0.00988296	60.360000	0.521500
0.00989250	60.360000	0.521500
0.00993867	60.290000	0.525400
0.00994049	60.290000	0.527000
0.00995002	60.290000	0.527000
0.00996181	60.290000	0.527000
0.00997324	60.290000	0.528700
0.00999661	60.290000	0.528700
0.00999880	60.290000	0.528700
0.01000807	60.290000	0.518600
0.01005416	60.290000	0.518600
0.01005616	60.220000	0.517800
0.01006633	60.220000	0.517800
0.01011234	60.360000	0.519000
0.01011420	60.290000	0.517400
0.01012352	60.290000	0.517400
0.01013520	60.290000	0.517400
0.01014686	60.290000	0.516800
0.01015834	60.290000	0.516800
0.01016990	60.290000	0.516800
0.01018148	60.220000	0.514300
0.01019302	60.220000	0.514300
0.01020466	60.220000	0.514300
0.01021632	60.290000	0.513000
0.01022862	60.290000	0.513000
0.01023922	60.290000	0.513000
0.01025106	60.220000	0.521600
0.01026236	60.220000	0.521600
0.01027406	60.220000	0.529900
0.01028573	60.220000	0.529900
0.01029731	60.220000	0.529900
0.01030881	60.220000	0.529900
0.01032029	60.150000	0.515700
0.01033251	60.150000	0.515700
0.01035536	60.080000	0.506700
0.01035770	60.080000	0.506700
0.01036676	60.080000	0.506700
0.01037850	60.080000	0.506700
0.01039006	60.150000	0.507500
0.01043622	60.150000	0.507500
0.01043822	60.150000	0.515500
0.01044856	60.150000	0.515500
0.01045949	60.150000	0.517900
0.01050612	60.150000	0.517900
0.01050830	60.220000	0.524400
0.01052932	60.220000	0.524400
0.01053160	60.220000	0.521400
0.01057546	60.220000	0.521400
0.01057747	60.290000	0.520800
0.01058683	60.220000	0.518400
0.01059837	60.220000	0.518400
0.01062167	60.220000	0.518400
0.01062406	60.220000	0.517000
0.01063348	60.220000	0.517000
0.01064487	60.220000	0.517000
0.01065661	60.220000	0.517000
0.01066807	60.220000	0.516100
0.01067973	60.220000	0.516100
0.01069125	60.220000	0.516100
0.01070287	60.150000	0.519700
0.01074929	60.150000	0.519700
0.01075148	60.150000	0.518600
0.01076084	60.150000	0.516000
0.01078402	60.150000	0.516000
0.01079756	60.150000	0.516000
0.01079973	60.150000	0.519000
0.01080706	60.150000	0.519000
0.01081887	60.150000	0.519000
0.01083016	60.150000	0.519000
0.01084164	60.150000	0.513400
0.01085330	60.150000	0.513400
0.01086498	60.150000	0.513400
0.01087634	60.000000	0.511100
0.01088815	60.000000	0.511100
0.01089968	60.080000	0.511100
0.01091131	60.080000	0.516700
0.01092275	60.080000	0.516700
0.01093428	60.080000	0.519600
0.01094648	60.080000	0.519600
0.01099235	60.080000	0.519600
0.01099434	60.150000	0.518700
0.01100388	60.150000	0.518700
0.01101535	60.150000	0.518300
0.01102690	60.150000	0.518300
0.01103832	60.150000	0.518300
0.01104994	60.080000	0.513400
0.01106156	60.080000	0.513400
0.01107318	60.150000	0.512300
0.01108480	60.150000	0.512300
0.01109642	60.150000	0.512300
0.01110788	60.150000	0.512300
0.01111971	60.150000	0.516100
0.01113103	60.150000	0.516100
0.01114255	60.150000	0.516100
0.01115450	60.150000	0.520200
0.01116631	60.150000	0.520200
0.01117764	60.150000	0.520200
0.01118961	60.150000	0.521800
0.01120117	60.150000	0.521800
0.01121265	60.150000	0.521800
0.01122426	60.510000	0.526500
0.01124755	60.510000	0.526500
0.01124981	60.290000	0.524800
0.01125895	60.290000	0.524800
0.01127064	60.290000	0.524800
0.01128200	60.290000	0.524800
0.01129362	60.220000	0.523700
0.01131689	60.220000	0.523700
0.01135377	60.220000	0.523700
0.01135595	60.220000	0.521800
0.01139810	60.150000	0.520700
0.01140020	60.150000	0.521000
0.01140947	60.150000	0.521000
0.01145575	60.080000	0.518300
0.01145832	60.220000	0.519300
0.01146741	60.220000	0.519300
0.01147896	60.220000	0.519300
0.01149058	60.220000	0.519300
0.01150215	60.150000	0.519200
0.01151361	60.150000	0.519200
0.01152565	60.150000	0.519200
0.01153691	60.150000	0.517700
0.01154854	60.150000	0.517700
0.01155975	60.150000	0.517700
0.01157153	60.150000	0.518300
0.01158314	60.150000	0.518300
0.01162947	60.150000	0.518300
0.01163153	60.150000	0.516400
0.01164093	60.150000	0.516400
0.01165260	60.150000	0.516400
0.01166422	60.150000	0.516400
0.01167593	60.150000	0.517900
0.01168733	60.150000	0.517900
0.01169881	60.150000	0.517900
0.01171049	60.150000	0.515100
0.01172262	60.150000	0.515100
0.01173442	60.080000	0.510500
0.01174519	60.080000	0.510500
0.01175712	60.080000	0.510500
0.01176846	60.150000	0.510400
0.01177992	60.150000	0.510400
0.01179155	60.150000	0.510400
0.01180313	60.150000	0.510400
0.01182605	60.150000	0.517000
0.01186291	60.150000	0.517000
0.01186509	60.150000	0.520800
0.01187253	60.150000	0.520800
0.01188412	60.150000	0.519500
0.01189580	60.150000	0.519500
0.01190743	60.220000	0.524000
0.01191897	60.220000	0.524000
0.01194341	60.220000	0.524000
0.01194542	60.150000	0.519600
0.01195376	60.150000	0.519600
0.01196519	60.150000	0.519600
0.01197678	60.150000	0.519600
0.01198816	60.220000	0.522400
0.01199992	60.220000	0.522400
0.01201135	60.220000	0.522400
0.01202296	60.290000	0.523800
0.01203470	60.290000	0.523800
0.01204630	60.290000	0.523800
0.01205767	60.150000	0.520700
0.01206906	60.150000	0.520700
0.01208098	60.080000	0.519000
0.01209250	60.080000	0.519000
0.01210394	60.080000	0.519000
0.01211568	60.080000	0.519000
0.01212711	60.220000	0.521700
0.01213883	60.220000	0.521700
0.01215271	60.220000	0.521700
0.01216194	60.220000	0.521700
0.01217366	60.150000	0.524600
0.01218528	60.150000	0.524600
0.01219674	60.080000	0.521900
0.01220817	60.080000	0.521900
0.01222009	60.080000	0.521900
0.01223156	60.150000	0.522300
0.01224383	60.150000	0.522300
0.01225517	60.150000	0.518000
0.01226639	60.150000	0.518000
0.01227775	60.150000	0.518000
0.01228928	60.150000	0.518000
0.01230093	60.150000	0.514600
0.01231240	60.150000	0.514600
0.01232416	60.150000	0.514600
0.01233572	60.150000	0.511300
0.01234715	60.150000	0.511300
0.01235917	60.150000	0.511300
0.01237041	60.080000	0.512700
0.01238207	60.080000	0.512700
0.01239358	60.080000	0.512700
0.01240507	60.080000	0.516100
0.01241672	60.080000	0.516100
0.01242828	60.080000	0.517700
0.01243994	60.080000	0.517700
0.01245140	60.080000	0.517700
0.01246306	60.080000	0.517700
0.01247476	69.520000	0.541100
0.01248650	69.520000	0.541100
0.01249813	69.520000	0.541100
0.01250947	80.460000	0.572300
0.01252108	80.460000	0.572300
0.01253249	80.460000	0.572300
0.01254410	54.640000	0.357900
0.01255579	54.640000	0.357900
0.01256741	54.640000	0.357900
0.01257896	50.710000	0.344300
0.01259027	50.710000	0.344300
0.01260198	46.840000	0.324400
0.01261369	46.840000	0.324400
0.01262514	46.840000	0.324400
0.01263678	46.840000	0.324400
0.01264838	20.740000	0.182500
0.01265998	20.740000	0.182500
0.01269505	21.450000	0.183200
0.01270940	21.450000	0.183200
0.01271160	21.450000	0.183200
0.01272951	18.310000	0.179800
0.01273194	18.310000	0.179800
0.01274122	17.800000	0.179600
0.01275259	17.800000	0.179600
0.01276520	17.800000	0.179600
0.01277572	17.660000	0.179300
0.01278738	17.660000	0.179300
0.01279880	17.660000	0.179300
0.01281035	17.660000	0.179300
0.01282203	17.660000	0.179900
0.01283370	17.660000	0.179900
0.01284532	17.660000	0.179900
0.01285677	17.730000	0.180600
0.01286855	17.730000	0.180600
0.01288006	17.730000	0.180600
0.01289167	17.730000	0.180600
0.01290324	17.730000	0.180600
0.01291490	17.660000	0.180400
0.01292631	17.660000	0.180400
0.01293780	17.660000	0.180400
0.01294933	17.590000	0.179900
0.01296096	17.590000	0.179900
0.01297294	17.590000	0.179900
0.01298466	17.590000	0.179900
0.01303086	36.830000	0.276200
0.01303314	30.180000	0.242900
0.01307697	30.180000	0.242900
0.01307916	30.540000	0.244300
0.01308854	31.040000	0.246800
0.01310017	31.040000	0.246800
0.01311164	31.040000	0.246800
0.01312322	7.720000	0.098300
0.01314660	7.720000	0.098300
0.01314880	7.720000	0.098300
0.01315815	7.720000	0.098300
0.01316970	4.290000	0.055500
0.01319311	4.290000	0.055500
0.01323036	4.290000	0.055500
0.01323256	4.290000	0.055400
0.01327385	4.290000	0.055600
0.01327609	4.290000	0.055500
0.01329707	4.290000	0.055500
0.01329924	4.290000	0.056100
0.01330853	4.290000	0.056100
0.01332000	4.290000	0.056100
0.01336652	4.290000	0.056100
0.01338037	4.290000	0.055900
0.01341766	4.360000	0.055900
0.01341956	4.290000	0.055800
0.01342404	4.290000	0.055800
0.01347043	4.290000	0.055800
0.01347281	4.290000	0.056300
0.01348237	4.290000	0.056300
0.01350567	4.290000	0.056300
0.01351980	4.290000	0.056300
0.01362834	4.290000	0.055900
0.01363056	4.290000	0.055700
0.01366723	4.290000	0.055700
0.01366942	4.290000	0.055800
0.01367939	4.290000	0.055800
0.01372524	4.290000	0.055800
0.01377362	4.290000	0.055900
0.01377581	4.290000	0.055500
0.01381813	4.290000	0.055500
0.01382038	4.290000	0.055500
0.01407230	4.290000	0.055600
0.01407449	4.290000	0.055800
0.01408387	4.290000	0.055800
0.01409560	4.290000	0.056000
0.01410730	4.290000	0.056000
0.01415359	4.290000	0.056000
0.01415559	4.360000	0.056400
0.01416539	4.360000	0.056400
0.01417672	4.290000	0.055900
0.01429270	4.290000	0.055900
0.01429490	4.290000	0.056200
0.01431578	4.290000	0.056200
0.01431804	4.360000	0.055400
0.01432720	4.360000	0.055400
0.01433876	4.360000	0.055400
0.01435038	4.290000	0.055500
0.01436196	4.290000	0.055500
0.01437333	4.290000	0.055500
0.01438590	4.290000	0.055700
0.01439672	4.290000	0.055700
0.01440890	4.360000	0.055500
0.01442064	4.360000	0.055500
0.01443314	4.360000	0.055500
0.01444453	4.360000	0.055600
0.01445674	4.360000	0.055600
0.01446741	4.360000	0.055600
0.01447932	4.360000	0.055600
0.01452502	4.290000	0.055500
0.01452720	20.880000	0.191900
0.01453578	20.880000	0.191900
0.01454737	20.450000	0.196400
0.01455919	20.450000	0.196400
0.01457058	20.450000	0.196400
0.01458208	39.620000	0.296200
0.01459389	39.620000	0.296200
0.01460589	39.620000	0.296200
0.01461692	39.620000	0.296200
0.01462851	31.540000	0.251800
0.01464008	31.540000	0.251800
0.01465162	31.540000	0.251800
0.01466303	24.530000	0.214600
0.01472171	24.530000	0.214600
0.01472499	35.260000	0.272700
0.01473252	35.260000	0.272700
0.01474439	35.260000	0.272700
0.01475596	35.690000	0.273200
0.01476726	35.690000	0.273200
0.01503366	35.690000	0.273200
0.01503551	24.240000	0.212700
0.01508009	18.450000	0.180600
0.01508209	18.450000	0.180600
0.01509135	18.450000	0.180600
0.01513773	18.450000	0.180600
0.01524374	17.660000	0.179400
0.01580159	14.940000	0.083400
0.01583928	15.160000	0.085000
0.01594545	15.160000	0.084800
0.01598218	15.090000	0.084300
0.01598418	12.870000	0.126500
0.01602962	12.870000	0.126500
0.01603161	21.020000	0.199300
0.01604056	17.300000	0.156300
0.01605271	17.300000	0.156300
0.01606406	17.300000	0.156300
0.01607586	30.890000	0.317400
0.01608731	30.890000	0.317400
0.01609861	30.890000	0.317400
0.01611043	30.890000	0.317400
0.01612197	52.280000	0.442300
0.01613338	52.280000	0.442300
0.01614502	52.280000	0.442300
0.01619132	54.710000	0.465200
0.01619366	53.420000	0.470500
0.01620291	53.420000	0.470500
0.01645745	55.210000	0.475500
0.01645985	46.920000	0.400700
0.01646891	46.840000	0.389400
0.01648065	46.840000	0.389400
0.01652694	46.840000	0.389400
0.01652912	48.850000	0.408900
0.01653883	48.850000	0.408900
0.01656226	48.850000	0.408900
0.01656426	47.270000	0.414700
0.01657355	47.270000	0.414700
0.01658503	47.270000	0.414700
0.01659670	47.270000	0.414700
0.01660799	46.420000	0.406800
0.01661970	46.420000	0.406800
0.01667787	47.200000	0.413200
0.01671484	46.060000	0.370700
0.01675170	37.260000	0.262700
0.01675385	44.980000	0.348700
0.01679346	44.980000	0.348700
0.01679559	43.050000	0.363300
0.01680495	43.050000	0.363300
0.01681661	46.490000	0.389700
0.01685154	41.340000	0.346000
0.01686550	41.340000	0.346000
0.01686777	41.340000	0.346000
0.01690916	40.340000	0.346200
0.01691174	39.120000	0.348000
0.01695554	39.120000	0.348000
0.01695788	39.330000	0.348900
0.01696701	39.330000	0.348900
0.01697856	39.330000	0.348900
0.01699020	40.620000	0.358000
0.01700189	40.620000	0.358000
0.01701333	42.340000	0.375300
0.01702579	42.340000	0.375300
0.01703697	42.340000	0.375300
0.01705336	43.630000	0.386600
0.01716390	43.630000	0.386600
0.01716610	48.270000	0.426000
0.01717561	48.270000	0.426000
0.01723356	50.350000	0.440900
0.01723581	51.780000	0.455700
0.01727966	51.780000	0.455700
0.01729389	53.280000	0.468800
0.01733050	55.570000	0.484900
0.01736760	57.070000	0.498600
0.01736988	58.790000	0.509300
0.01740742	58.790000	0.509300
0.01740997	61.150000	0.524800
0.01741865	61.150000	0.524800
0.01743015	61.150000	0.524800
0.01747646	62.150000	0.538800
0.01747851	62.080000	0.537000
0.01748825	62.080000	0.537000
0.01749981	62.080000	0.537100
0.01751128	62.080000	0.537100
0.01752281	62.080000	0.537100
0.01753440	62.080000	0.536200
0.01754598	62.080000	0.536200
0.01755731	62.080000	0.536200
0.01756913	62.080000	0.536200
0.01759237	61.220000	0.524400
0.01759564	61.220000	0.524400
0.01760402	61.220000	0.524400
0.01765014	50.420000	0.424500
0.01765230	55.780000	0.459200
0.01766150	55.780000	0.459200
0.01767339	50.130000	0.413700
0.01768477	50.130000	0.413700
0.01773120	50.130000	0.413700
0.01773328	54.350000	0.462000
0.01775493	54.350000	0.462000
0.01775676	54.500000	0.473700
0.01787153	54.500000	0.473700
0.01787366	59.360000	0.512700
0.01789384	61.150000	0.528800
0.01789554	61.150000	0.528800
0.01790530	61.150000	0.528800
0.01791670	61.150000	0.528800
0.01792837	63.720000	0.549800
0.01794001	63.720000	0.549800
0.01796351	63.720000	0.549800
0.01796589	64.510000	0.546700
0.01800961	64.510000	0.546700
0.01801182	64.370000	0.549800
0.01805582	64.300000	0.555000
0.01806965	64.150000	0.545000
0.01807190	64.150000	0.545000
0.01807928	64.150000	0.545000
0.01809050	64.150000	0.545000
0.01811382	64.080000	0.541300
0.01811588	64.080000	0.541300
0.01813691	74.810000	0.574600
0.01817382	74.810000	0.574600
0.01824542	47.060000	0.408100
0.01824762	27.100000	0.246500
0.01825253	27.100000	0.246500
0.01826624	27.100000	0.246500
0.01827598	27.100000	0.247100
0.01828733	27.100000	0.247100
0.01833363	27.100000	0.247100
0.01833564	27.170000	0.252000
0.01837987	27.170000	0.252000
0.01838286	27.100000	0.249500
0.01839122	27.100000	0.249500
0.01840341	27.100000	0.249500
0.01844959	26.960000	0.246300
0.01845178	26.960000	0.245600
0.01846098	26.960000	0.245600
0.01847267	26.960000	0.246800
0.01848461	26.960000	0.246800
0.01849564	26.960000	0.246800
0.01850716	9.510000	0.126500
0.01855366	9.510000	0.126500
0.01855583	21.240000	0.202900
0.01859975	21.240000	0.202900
0.01860175	32.180000	0.301600
0.01861150	32.180000	0.301600
0.01862309	27.320000	0.249900
0.01866948	27.320000	0.249900
0.01867194	18.230000	0.184900
0.01868153	1386.160000	7.159700
0.01869326	1386.160000	7.159700
0.01870477	1386.160000	7.159700
0.01871616	2063.220000	8.768100
0.01875087	2063.220000	8.768100
0.01875304	2056.570000	8.748200
0.01876216	2056.570000	8.748200
0.01880870	2056.570000	8.748200
0.01882272	2056.000000	8.746700
0.01882491	2044.340000	8.706600
0.01883169	2044.340000	8.706600
0.01884337	2044.340000	8.706600
0.01888949	2049.700000	8.736700
0.01889138	2059.360000	8.769700
0.01890147	2059.360000	8.769700
0.01891359	2059.360000	8.769700
0.01895956	2059.360000	8.769700
0.01896162	2066.440000	8.784300
0.01900627	2066.440000	8.784300
0.01904316	2061.720000	8.770200
0.01904538	2057.640000	8.736700
0.01906431	2057.640000	8.736700
0.01906674	2059.650000	8.756300
0.01908741	2059.650000	8.756300
0.01908958	2059.650000	8.756300
0.01909894	2059.650000	8.756300
0.01911042	2060.580000	8.759300
0.01912208	2060.580000	8.759300
0.01913353	2061.220000	8.761300
0.01914521	2061.220000	8.761300
0.01915670	2061.220000	8.761300
0.01916839	2058.930000	8.755900
0.01928417	2058.930000	8.755900
0.01928622	2054.570000	8.762500
0.01929574	2054.570000	8.762500
0.01934194	2046.560000	8.744600
0.01934433	2046.990000	8.746700
0.01935603	2046.990000	8.746700
0.01941304	2043.550000	8.726400
0.01941493	2046.130000	8.720900
0.01942292	2046.130000	8.720900
0.01943573	2046.130000	8.720900
0.01944598	2061.580000	8.760700
0.01945755	2061.580000	8.760700
0.01946903	2061.580000	8.760700
0.01948069	2058.570000	8.753900
0.01949282	2058.570000	8.753900
0.01950395	2058.570000	8.753900
0.01951561	2063.220000	8.764200
0.01952731	2063.220000	8.764200
0.01957345	2063.220000	8.764200
0.01958749	2061.650000	8.760700
0.01962443	2060.360000	8.758200
0.01962667	2055.780000	8.748000
0.01963147	2055.780000	8.748000
0.01967773	2052.420000	8.741100
0.01971422	2052.420000	8.741100
0.01971632	2056.360000	8.748400
0.01975895	2056.360000	8.748400
0.01976113	2054.350000	8.743700
0.01977069	2060.650000	8.756800
0.01979366	2059.140000	8.753600
0.01979566	2059.140000	8.753600
0.01980509	2059.140000	8.753600
0.01981703	2059.140000	8.753600
0.01982859	2066.150000	8.767900
0.01983998	2066.150000	8.767900
0.01985146	2066.150000	8.767900
0.01986506	2070.520000	8.776600
0.01987464	2070.520000	8.776600
0.01988609	2070.520000	8.776600
0.01997907	2072.450000	8.780700
0.01998119	2064.720000	8.765400
0.01999029	2064.720000	8.765400
0.02003672	2062.940000	8.761100
0.02003874	2062.440000	8.760200
0.02004817	2062.440000	8.760200
0.02005964	2062.440000	8.760200
0.02007174	2062.440000	8.760200
0.02011769	2063.940000	8.762800
0.02012005	2061.360000	8.757300
0.02012912	2061.360000	8.757300
0.02014242	2058.290000	8.751300
0.02015252	2058.290000	8.751300
0.02019870	2058.290000	8.751300
0.02023557	2059.720000	8.753500
0.02023774	2058.140000	8.750000
0.02024479	2058.140000	8.750000
0.02026811	2058.860000	8.751300
0.02030479	2058.860000	8.751300
0.02034161	2058.640000	8.750900
0.02037832	2055.070000	8.744200
0.02038031	2050.420000	8.732900
0.02038392	2050.420000	8.732900
0.02039536	2042.340000	8.700700
0.02040715	2042.340000	8.700700
0.02041843	2049.350000	8.746200
0.02043008	2049.350000	8.746200
0.02047646	2049.350000	8.746200
0.02047855	2055.000000	8.758700
0.02048795	2062.720000	8.774200
0.02049953	2062.720000	8.774200
0.02051110	2062.720000	8.774200
0.02062677	2071.590000	8.792900
0.02066370	2069.870000	8.789000
0.02066589	2075.880000	8.800600
0.02067358	2075.880000	8.800600
0.02068486	2075.880000	8.800600
0.02069652	2077.880000	8.804600
0.02070815	2077.880000	8.804600
0.02073128	2077.880000	8.804600
0.02073346	2077.880000	8.804600
0.02078922	2073.880000	8.796300
0.02082597	2070.590000	8.789700
0.02087435	2074.450000	8.797300
0.02087653	2065.650000	8.779300
0.02088212	2065.650000	8.779300
0.02099760	2065.650000	8.779300
0.02099973	2064.010000	8.775600
0.02107885	2060.860000	8.764000
0.02108087	2055.140000	8.737000
0.02112472	2055.140000	8.737000
0.02116198	2050.200000	8.727600
0.02116382	2051.490000	8.731000
0.02118325	2051.490000	8.731000
0.02123190	2048.420000	8.725400
0.02123411	2051.130000	8.731000
0.02124124	2051.130000	8.731000
0.02128794	2053.070000	8.734700
0.02130179	2056.070000	8.741000
0.02133878	2056.070000	8.741000
0.02135264	2056.070000	8.741000
0.02135502	2056.070000	8.741000
0.02139204	2056.070000	8.741000
0.02144086	2071.730000	8.790700
0.02147796	2069.020000	8.787200
0.02151491	2066.370000	8.781200
0.02156385	2063.790000	8.775700
0.02156604	2064.940000	8.776900
0.02157721	2064.940000	8.776900
0.02160059	2064.580000	8.775600
0.02163881	2064.580000	8.775600
0.02164093	2066.580000	8.779400
0.02164668	2066.580000	8.779400
0.02167008	2066.580000	8.779400
0.02167227	2068.660000	8.784700
0.02171628	2068.660000	8.784700
0.02171839	2066.800000	8.781300
0.02177416	2074.880000	8.797100
0.02177618	2078.170000	8.803500
0.02178551	2078.170000	8.803500
0.02186640	2078.170000	8.803500
0.02198390	2072.090000	8.790200
0.02198608	2060.070000	8.754000
0.02199385	2060.070000	8.754000
0.02201765	2060.070000	8.754000
0.02203185	2053.850000	8.726500
0.02217339	2053.850000	8.726500
0.02217563	2061.000000	8.754100
0.02221369	2061.000000	8.754100
0.02221552	2061.790000	8.755600
0.02229515	2063.870000	8.760200
0.02229715	2055.000000	8.725400
0.02230627	2055.000000	8.725400
0.02238740	2055.000000	8.725400
0.02245870	2075.380000	8.797900
0.02249586	2071.230000	8.789200
0.02254449	2076.600000	8.805200
0.02260473	2069.370000	8.785500
0.02261858	2066.300000	8.777800
0.02262128	2066.300000	8.777800
0.02266517	2066.300000	8.777800
0.02277172	2061.930000	8.769200
0.02278575	2072.810000	8.791300
0.02283473	2072.810000	8.791300
0.02288389	2019.950000	8.684400
0.02289822	2013.370000	8.670700
0.02290023	2013.370000	8.670700
0.02304808	2013.370000	8.670700
0.02325838	2005.790000	8.635300
0.02326082	1995.420000	8.609100
0.02326792	2000.210000	8.630000
0.02332617	2000.210000	8.630000
0.02336784	2011.440000	8.666200
0.02336995	2011.440000	8.666200
0.02337207	2011.440000	8.666200
0.02338353	2011.440000	8.666200
0.02339537	2011.440000	8.666200
0.02341844	2010.220000	8.663900
0.02346656	2010.220000	8.663900
0.02346839	2008.000000	8.659500
0.02347616	2008.000000	8.659500
0.02348777	2006.500000	8.656500
0.02349920	2006.500000	8.656500
0.02351073	2006.500000	8.656500
0.02352235	2006.500000	8.656500
0.02353400	2006.500000	8.656500
0.02354557	2004.640000	8.652400
0.02355729	2004.640000	8.652400
0.02356912	2004.640000	8.652400
0.02358148	2009.860000	8.662700
0.02359250	2009.860000	8.662700
0.02360403	2009.860000	8.662700
0.02361545	2011.080000	8.665200
0.02363925	2011.080000	8.665200
0.02364144	2006.290000	8.654200
0.02365073	2006.290000	8.654200
0.02366267	2006.290000	8.654200
0.02367345	2006.290000	8.654200
0.02368488	2009.080000	8.660200
0.02369633	2009.080000	8.660200
0.02370813	2009.080000	8.660200
0.02371948	2008.860000	8.660000
0.02373110	2008.860000	8.660000
0.02374260	2008.860000	8.660000
0.02375421	2014.080000	8.671800
0.02376582	2014.080000	8.671800
0.02377743	2014.080000	8.671800
0.02378904	2015.300000	8.674100
0.02380028	2015.300000	8.674100
0.02381199	2015.300000	8.674100
0.02382375	2005.930000	8.654200
0.02383544	2005.930000	8.654200
0.02384722	2005.930000	8.654200
0.02385834	1993.200000	8.627300
0.02390976	1993.200000	8.627300
0.02391251	1980.900000	8.587800
0.02391678	1980.900000	8.587800
0.02392794	1971.600000	8.555100
0.02393947	1971.600000	8.555100
0.02395118	1971.600000	8.555100
0.02396245	1971.600000	8.555100
0.02397399	1979.110000	8.584000
0.02398594	1979.110000	8.584000
0.02399767	1979.680000	8.585000
0.02400863	1979.680000	8.585000
0.02402041	1979.680000	8.585000
0.02403233	1984.110000	8.594100
0.02404363	1984.110000	8.594100
0.02405527	1984.110000	8.594100
0.02406688	1997.420000	8.622300
0.02407806	1997.420000	8.622300
0.02408990	1997.420000	8.622300
0.02410149	2004.000000	8.636100
0.02411321	2004.000000	8.636100
0.02412470	2004.000000	8.636100
0.02413610	2003.210000	8.634300
0.02414780	2003.210000	8.634300
0.02415938	2003.210000	8.634300
0.02417086	1995.990000	8.616400
0.02418238	1995.990000	8.616400
0.02419397	1995.990000	8.616400
0.02420569	1994.340000	8.597300
0.02421711	1994.340000	8.597300
0.02422889	1994.340000	8.597300
0.02424050	1994.340000	8.597300
0.02425213	1994.340000	8.597300
0.02426368	1994.340000	8.597300
0.02427538	2005.210000	8.652900
0.02428693	2005.210000	8.652900
0.02429854	2005.210000	8.652900
0.02432230	2010.580000	8.664400
0.02432449	2010.580000	8.664400
0.02434520	2010.580000	8.664400
0.02434755	2008.220000	8.659900
0.02435694	2008.220000	8.659900
0.02436841	2008.220000	8.659900
0.02437969	2008.430000	8.659900
0.02439105	2008.430000	8.659900
0.02440272	2008.430000	8.659900
0.02441435	2010.360000	8.664100
0.02442579	2010.360000	8.664100
0.02443745	2010.360000	8.664100
0.02444904	2010.360000	8.664100
0.02446071	2011.870000	8.667000
0.02447216	2011.870000	8.667000
0.02448486	2013.230000	8.669900
0.02449589	2013.230000	8.669900
0.02450741	2013.230000	8.669900
0.02451881	2012.800000	8.669000
0.02453003	2012.800000	8.669000
0.02454169	2012.800000	8.669000
0.02455575	2011.370000	8.665600
0.02456699	2011.370000	8.665600
0.02458971	2011.370000	8.665600
0.02459280	2018.950000	8.680800
0.02461171	2018.380000	8.679600
0.02461407	2018.380000	8.679600
0.02462321	2018.380000	8.679600
0.02463602	2018.380000	8.679600
0.02464713	2018.380000	8.679600
0.02465811	2014.010000	8.671000
0.02466953	2014.010000	8.671000
0.02469309	2014.010000	8.671000
0.02469694	2008.430000	8.659200
0.02470501	2008.430000	8.659200
0.02471661	2008.430000	8.659200
0.02472720	2003.500000	8.649200
0.02473924	2003.500000	8.649200
0.02475069	2003.500000	8.649200
0.02480868	1997.130000	8.635300
0.02481081	2000.850000	8.643300
0.02482015	2000.850000	8.643300
0.02483172	67.660000	0.565300
0.02484323	67.660000	0.565300
0.02491351	67.590000	0.570900
0.02491558	67.660000	0.573400
0.02492420	67.660000	0.573400
0.02493546	67.660000	0.569300
0.02494715	67.660000	0.569300
0.02495892	67.660000	0.569300
0.02497056	67.660000	0.569300
0.02498200	67.660000	0.569300
0.02499351	67.660000	0.569300
0.02500516	67.590000	0.568300
0.02501662	67.590000	0.568300
0.02502847	67.590000	0.568300
0.02503993	67.590000	0.566700
0.02505231	67.590000	0.566700
0.02506299	67.590000	0.566700
0.02507446	67.660000	0.571100
0.02508604	67.660000	0.571100
0.02509771	67.590000	0.575200
0.02510981	67.590000	0.575200
0.02512362	67.590000	0.575200
0.02513338	67.590000	0.575200
0.02517976	67.590000	0.579500
0.02518181	67.660000	0.572800
0.02519051	67.660000	0.572800
0.02520219	67.660000	0.572800
0.02521380	67.660000	0.570400
0.02522539	67.660000	0.570400
0.02527170	67.660000	0.570400
0.02527360	67.660000	0.571900
0.02528307	67.660000	0.571900
0.02529507	67.660000	0.571900
0.02531038	67.660000	0.571900
0.02538846	67.660000	0.573700
0.02539047	67.300000	0.562700
0.02539884	67.300000	0.562700
0.02541080	67.300000	0.562700
0.02542220	61.150000	0.496900
0.02543435	61.150000	0.496900
0.02544597	61.150000	0.496900
0.02545669	56.360000	0.456100
0.02546826	56.360000	0.456100
0.02548012	56.360000	0.456100
0.02549169	60.360000	0.506400
0.02550328	60.360000	0.506400
0.02551519	60.360000	0.506400
0.02552669	60.510000	0.508600
0.02553838	60.510000	0.508600
0.02554965	60.510000	0.508600
0.02556190	60.790000	0.517300
0.02557363	60.790000	0.517300
0.02558437	60.860000	0.515600
0.02559622	60.860000	0.515600
0.02560791	60.860000	0.515600
0.02561924	60.860000	0.515600
0.02566969	60.720000	0.515400
0.02567200	60.790000	0.520700
0.02567747	60.790000	0.520700
0.02573587	60.790000	0.520700
0.02573843	54.280000	0.445000
0.02574721	54.280000	0.445000
0.02575933	65.510000	0.554900
0.02577065	65.510000	0.554900
0.02579340	65.510000	0.554900
0.02584205	67.940000	0.578900
0.02584424	67.870000	0.580200
0.02585104	67.870000	0.580200
0.02586260	67.870000	0.580200
0.02592266	67.870000	0.574400
0.02592470	67.800000	0.573800
0.02593177	67.800000	0.573800
0.02594347	67.800000	0.577800
0.02595502	67.800000	0.577800
0.02596657	67.800000	0.577800
0.02597800	67.660000	0.576200
0.02599003	67.660000	0.576200
0.02600135	67.660000	0.576200
0.02601284	67.660000	0.579700
0.02602424	67.660000	0.579700
0.02603620	67.660000	0.579700
0.02604743	67.660000	0.579300
0.02605948	67.660000	0.579300
0.02607178	67.590000	0.578600
0.02608251	67.590000	0.578600
0.02609382	67.590000	0.578600
0.02610735	67.590000	0.578600
0.02611765	67.660000	0.584300
0.02612846	67.660000	0.584300
0.02614013	67.660000	0.584300
0.02615166	67.660000	0.583200
0.02616503	67.660000	0.583200
0.02618691	67.590000	0.579700
0.02622421	67.590000	0.579700
0.02622697	67.660000	0.582000
0.02623374	67.660000	0.582000
0.02625625	67.660000	0.579800
0.02627024	67.660000	0.579800
0.02630738	67.660000	0.579800
0.02631017	67.660000	0.578400
0.02631392	67.660000	0.578400
0.02632559	67.660000	0.572000
0.02633745	67.660000	0.572000
0.02636031	67.660000	0.572000
0.02640933	68.160000	0.572500
0.02641153	56.140000	0.457400
0.02641825	56.140000	0.457400
0.02644150	56.140000	0.457400
0.02654782	56.140000	0.457400
0.02659640	62.370000	0.520600
0.02659858	62.440000	0.531100
0.02660352	62.440000	0.531100
0.02666134	62.440000	0.531100
0.02670991	62.440000	0.528900
0.02671182	63.150000	0.525100
0.02671934	63.150000	0.525100
0.02673086	67.730000	0.581000
0.02675418	67.730000	0.581000
0.02682612	67.800000	0.576700
0.02682811	67.800000	0.575000
0.02688115	67.730000	0.574300
0.02688322	67.800000	0.576400
0.02690439	67.800000	0.576400
0.02690664	67.660000	0.575900
0.02691745	67.660000	0.575900
0.02697455	67.660000	0.575900
0.02697655	67.730000	0.581100
0.02698527	67.660000	0.582800
0.02699676	67.660000	0.582800
0.02704339	67.660000	0.582800
0.02729301	67.730000	0.579200
0.02733006	61.290000	0.491800
0.02846800	62.940000	0.536100
0.02850517	62.870000	0.530500
0.02854222	62.870000	0.530500
0.02855625	62.650000	0.538700
0.02857017	62.650000	0.538700
0.02930369	62.650000	0.538700
0.02931772	60.510000	0.521500
0.02942424	60.510000	0.521500
0.03054052	63.370000	0.524300
0.03054271	63.370000	0.524300
0.03055275	63.370000	0.524300
0.03056418	67.800000	0.577200
0.03057586	67.800000	0.577200
0.03058743	67.800000	0.577200
0.03059911	67.940000	0.579000
0.03061080	67.940000	0.579000
0.03062212	67.940000	0.579000
0.03063391	67.940000	0.578100
0.03064532	67.940000	0.578100
0.03090123	68.020000	0.580200
0.03090331	68.090000	0.573300
0.03091167	68.090000	0.573300
0.03092321	68.090000	0.573300
0.03093484	68.090000	0.573300
0.03094646	68.160000	0.573600
0.03095816	68.160000	0.573600
0.03096948	68.090000	0.569700
0.03098108	68.090000	0.569700
0.03099291	68.090000	0.569700
0.03100453	68.090000	0.574400
0.03101596	68.090000	0.574400
0.03102759	68.090000	0.574400
0.03103898	68.090000	0.574400
0.03105073	68.160000	0.580600
0.03106230	68.160000	0.580600
0.03110932	68.160000	0.580600
0.03119333	56.570000	0.462100
0.03119537	56.570000	0.462100
0.03120095	56.570000	0.462100
0.03121265	56.570000	0.462100
0.03122417	60.860000	0.520200
0.03123634	60.860000	0.520200
0.03124793	60.860000	0.520200
0.03126019	60.860000	0.513600
0.03127362	60.860000	0.513600
0.03128212	60.860000	0.513600
0.03129404	60.860000	0.514600
0.03130606	60.860000	0.514600
0.03131837	60.930000	0.518700
0.03133060	60.930000	0.518700
0.03134108	60.930000	0.518700
0.03135428	60.930000	0.518300
0.03136476	60.930000	0.518300
0.03137685	60.930000	0.518300
0.03142189	60.930000	0.517500
0.03147146	60.930000	0.512700
0.03147660	54.280000	0.450400
0.03147928	54.280000	0.450400
0.03149094	64.010000	0.530200
0.03150206	64.010000	0.530200
0.03151434	64.010000	0.530200
0.03152539	64.010000	0.530200
0.03153701	64.010000	0.530200
0.03154838	64.010000	0.530200
0.03155997	64.010000	0.530200
0.03157150	68.300000	0.584200
0.03158318	68.300000	0.584200
0.03159465	68.300000	0.584200
0.03160624	68.230000	0.582800
0.03161800	68.230000	0.582800
0.03162946	68.300000	0.577400
0.03164101	68.300000	0.577400
0.03165284	68.300000	0.577400
0.03166416	68.230000	0.580600
0.03167580	68.230000	0.580600
0.03168737	68.230000	0.580600
0.03169890	68.230000	0.580600
0.03171049	68.300000	0.582800
0.03172222	68.300000	0.582800
0.03173352	68.300000	0.582800
0.03174513	68.300000	0.583900
0.03175736	68.300000	0.583900
0.03176830	68.300000	0.583900
0.03177997	68.300000	0.580700
0.03179142	68.300000	0.580700
0.03204731	68.370000	0.582300
0.03208515	68.370000	0.586700
0.03208745	68.800000	0.581800
0.03209308	68.800000	0.581800
0.03212822	61.790000	0.510300
0.03217854	61.790000	0.510300
0.03218075	62.720000	0.526700
0.03218573	63.580000	0.535700
0.03219765	63.580000	0.535700
0.03225502	63.580000	0.535700
0.03229219	63.800000	0.538000
0.03229475	64.370000	0.552800
0.03230150	64.370000	0.552800
0.03231286	64.370000	0.552800
0.03232431	64.220000	0.550700
0.03233606	64.220000	0.550700
0.03234735	64.220000	0.550700
0.03235870	64.220000	0.550700
0.03237066	63.800000	0.549200
0.03238238	63.800000	0.549200
0.03239391	63.800000	0.549200
0.03240544	62.580000	0.524300
0.03241694	62.580000	0.524300
0.03242870	62.580000	0.524300
0.03244003	64.370000	0.531700
0.03245162	64.370000	0.531700
0.03246350	69.090000	0.590500
0.03247508	69.090000	0.590500
0.03248650	69.090000	0.590500
0.03249859	69.090000	0.589400
0.03250985	69.090000	0.589400
0.03252156	69.090000	0.589400
0.03253303	69.090000	0.589400
0.03254485	69.090000	0.599500
0.03255712	69.090000	0.599500
0.03256787	69.090000	0.599500
0.03257959	69.020000	0.594500
0.03259087	69.020000	0.594500
0.03260236	69.020000	0.591800
0.03261402	69.020000	0.591800
0.03262556	69.020000	0.591800
0.03263730	69.090000	0.593600
0.03264881	69.090000	0.593600
0.03266031	69.090000	0.593600
0.03267207	69.090000	0.589200
0.03268339	69.090000	0.589200
0.03269491	69.090000	0.589200
0.03270650	69.090000	0.589200
0.03271829	69.090000	0.596400
0.03272970	69.090000	0.596400
0.03274125	69.090000	0.596400
0.03275293	69.020000	0.597500
0.03276458	69.020000	0.597500
0.03277596	68.950000	0.597200
0.03278758	68.950000	0.597200
0.03279912	68.950000	0.597200
0.03281072	69.020000	0.596700
0.03282259	69.020000	0.596700
0.03283459	69.020000	0.596700
0.03284541	69.020000	0.591300
0.03285697	69.020000	0.591300
0.03286867	69.020000	0.591300
0.03288009	69.020000	0.591300
0.03289182	69.090000	0.595400
0.03290338	69.090000	0.595400
0.03291509	69.090000	0.595400
0.03292660	69.090000	0.598700
0.03293828	69.090000	0.598700
0.03294957	69.020000	0.604200
0.03296131	69.020000	0.604200
0.03297314	69.020000	0.604200
0.03298469	69.020000	0.598300
0.03299622	69.020000	0.598300
0.03300774	69.020000	0.598300
0.03301922	69.020000	0.598300
0.03303097	68.950000	0.597700
0.03304225	68.950000	0.597700
0.03305418	68.950000	0.597700
0.03306595	61.720000	0.521100
0.03332226	61.720000	0.521100
0.03332580	61.440000	0.528900
0.03333244	61.650000	0.533200
0.03345933	61.650000	0.533200
0.03356553	68.870000	0.603600
0.03356751	68.870000	0.595300
0.03357464	68.870000	0.595300
0.03358613	68.870000	0.593900
0.03359793	68.870000	0.593900
0.03360932	68.950000	0.592300
0.03362110	68.950000	0.592300
0.03363269	68.950000	0.592300
0.03364432	68.800000	0.593300
0.03365622	68.800000	0.593300
0.03366725	68.800000	0.593300
0.03367868	68.800000	0.593300
0.03369044	68.800000	0.582800
0.03370185	68.800000	0.582800
0.03371340	68.800000	0.582800
0.03372579	68.800000	0.586200
0.03373656	68.800000	0.586200
0.03374841	68.870000	0.582200
0.03375977	68.870000	0.582200
0.03377154	68.870000	0.582200
0.03378299	68.800000	0.584500
0.03379492	68.800000	0.584500
0.03380624	68.800000	0.584500
0.03381762	68.800000	0.587200
0.03382957	68.800000	0.587200
0.03384090	68.800000	0.587200
0.03385248	68.800000	0.587200
0.03405177	68.870000	0.589900
0.03405359	61.790000	0.505700
0.03406090	61.790000	0.505700
0.03407271	62.870000	0.544400
0.03408396	62.870000	0.544400
0.03409561	63.370000	0.549900
0.03410745	63.370000	0.549900
0.03411873	63.370000	0.549900
0.03413045	63.370000	0.553300
0.03414183	63.370000	0.553300
0.03415362	63.370000	0.553300
0.03416503	63.370000	0.553300
0.03417663	63.440000	0.551100
0.03418816	63.440000	0.551100
0.03419976	63.440000	0.551100
0.03421162	63.370000	0.545600
0.03422292	63.370000	0.545600
0.03423468	63.370000	0.548600
0.03424628	63.370000	0.548600
0.03429351	63.300000	0.548700
0.03429605	63.300000	0.548700
0.03439343	68.870000	0.601400
0.03440697	68.800000	0.602200
0.03440881	68.800000	0.602200
0.03441991	68.800000	0.602200
0.03443148	68.800000	0.602200
0.03444319	68.800000	0.603600
0.03445466	68.800000	0.603600
0.03446616	68.800000	0.603600
0.03447801	68.800000	0.585600
0.03448936	68.800000	0.585600
0.03450100	68.800000	0.585600
0.03451253	68.800000	0.585600
0.03452500	68.800000	0.580500
0.03453736	68.800000	0.580500
0.03454740	68.800000	0.580500
0.03455903	68.800000	0.580400
0.03457074	68.800000	0.580400
0.03458449	68.870000	0.588700
0.03463146	68.870000	0.588700
0.03463328	68.870000	0.589400
0.03463991	68.870000	0.589400
0.03465149	68.800000	0.594900
0.03466321	68.800000	0.594900
0.03467478	68.800000	0.594900
0.03468639	68.800000	0.594900
0.03469784	68.800000	0.596600
0.03470965	68.800000	0.596600
0.03472127	68.870000	0.596600
0.03473277	68.870000	0.601500
0.03474421	68.870000	0.601500
0.03475587	68.800000	0.598700
0.03476762	68.800000	0.598700
0.03477943	68.800000	0.598700
0.03479076	68.800000	0.596700
0.03481469	68.800000	0.596700
0.03481692	68.800000	0.596700
0.03487264	68.800000	0.599200
0.03488684	68.730000	0.596900
0.03488905	68.730000	0.598200
0.03494178	68.730000	0.598200
0.03498249	61.860000	0.508800
0.03510109	61.150000	0.525100
0.03511522	61.220000	0.527700
0.03512887	61.220000	0.527700
0.03514279	61.220000	0.531100
0.03515661	61.220000	0.531100
0.03515878	61.220000	0.531100
0.03516134	61.220000	0.531100
0.03517294	61.220000	0.531100
0.03523135	61.220000	0.530200
0.03530438	61.220000	0.528800
0.03534181	54.570000	0.448200
0.03541383	64.440000	0.534300
0.03542752	68.660000	0.593900
0.03544124	68.660000	0.593900
0.03547819	68.660000	0.593900
0.03548056	68.730000	0.590500
0.03555671	68.660000	0.584900
0.03562347	68.660000	0.589200
0.03566046	68.590000	0.584600
0.03566708	68.660000	0.599000
0.03568289	68.660000	0.599000
0.03568565	68.660000	0.599000
0.03569477	68.660000	0.599000
0.03570652	68.660000	0.595900
0.03571785	68.660000	0.595900
0.03572847	68.800000	0.598700
0.03573998	68.800000	0.598700
0.03575204	68.800000	0.598700
0.03576403	68.730000	0.595100
0.03577498	68.730000	0.595100
0.03578647	68.730000	0.595100
0.03579784	68.730000	0.595100
0.03580954	68.730000	0.596300
0.03582135	68.730000	0.596300
0.03583282	68.730000	0.596300
0.03584429	68.800000	0.598400
0.03585582	68.800000	0.598400
0.03586904	68.800000	0.594200
0.03588120	68.800000	0.594200
0.03592677	68.950000	0.588400
0.03593503	68.950000	0.588400
0.03593780	62.010000	0.513400
0.03594909	62.010000	0.513400
0.03596102	62.010000	0.513400
0.03597358	62.010000	0.513400
0.03598325	63.010000	0.542700
0.03599579	63.010000	0.542700
0.03600872	63.010000	0.542700
0.03601861	63.300000	0.543800
0.03602966	63.300000	0.543800
0.03604116	63.370000	0.545900
0.03605273	63.370000	0.545900
0.03606449	63.370000	0.545900
0.03607613	63.370000	0.546800
0.03608772	63.370000	0.546800
0.03610080	63.370000	0.546800
0.03611071	63.440000	0.552200
0.03612339	63.440000	0.552200
0.03613384	63.440000	0.552200
0.03614556	63.440000	0.552200
0.03615715	63.370000	0.544100
0.03616873	63.370000	0.544100
0.03618021	63.440000	0.544100
0.03619172	63.440000	0.547400
0.03620337	63.440000	0.547400
0.03621486	62.220000	0.521700
0.03622659	62.220000	0.521700
0.03624416	62.220000	0.521700
0.03625517	58.790000	0.491200
0.03626296	58.790000	0.491200
0.03627477	58.790000	0.491200
0.03628479	68.800000	0.595300
0.03629617	68.800000	0.595300
0.03630772	68.800000	0.595300
0.03631936	68.800000	0.595300
0.03633081	68.800000	0.599200
0.03634316	68.800000	0.599200
0.03635394	68.870000	0.608200
0.03636551	68.870000	0.608200
0.03637734	68.870000	0.608200
0.03638876	68.800000	0.608800
0.03640044	68.800000	0.608800
0.03641185	68.800000	0.608800
0.03642348	68.800000	0.603900
0.03643590	68.800000	0.603900
0.03644657	68.800000	0.603900
0.03645836	68.800000	0.603900
0.03647014	68.800000	0.605100
0.03648137	68.800000	0.605100
0.03649311	68.800000	0.605100
0.03650458	68.800000	0.598400
0.03651600	68.800000	0.598400
0.03652771	68.800000	0.597700
0.03653918	68.800000	0.597700
0.03657528	68.800000	0.597700
0.03657903	68.800000	0.594600
0.03658765	68.800000	0.594600
0.03659728	68.800000	0.600400
0.03660890	68.800000	0.600400
0.03662094	68.800000	0.600400
0.03663278	68.800000	0.600400
0.03664360	68.800000	0.603400
0.03665503	68.800000	0.603400
0.03666642	68.800000	0.603400
0.03667814	68.800000	0.606100
0.03668975	68.800000	0.606100
0.03670130	68.800000	0.601100
0.03671275	68.800000	0.601100
0.03672455	68.800000	0.601100
0.03673602	68.730000	0.593100
0.03674889	68.730000	0.593100
0.03676260	68.730000	0.593100
0.03677073	68.730000	0.598600
0.03678250	68.730000	0.598600
0.03679403	68.730000	0.598600
0.03680547	68.730000	0.598600
0.03681719	68.730000	0.596900
0.03682848	68.730000	0.596900
0.03684006	68.730000	0.597000
0.03685169	68.730000	0.597000
0.03686315	68.730000	0.597000
0.03687483	61.440000	0.516600
0.03688660	61.440000	0.516600
0.03689866	61.440000	0.516600
0.03691022	57.500000	0.481700
0.03692199	57.500000	0.481700
0.03693339	57.500000	0.481700
0.03694443	57.500000	0.481700
0.03695615	61.080000	0.533800
0.03696752	61.080000	0.533800
0.03697941	61.080000	0.533800
0.03699060	61.220000	0.532900
0.03700208	61.220000	0.532900
0.03701402	61.220000	0.533100
0.03702523	61.220000	0.533100
0.03707156	61.220000	0.533100
0.03707921	61.220000	0.532900
0.03708458	61.220000	0.529500
0.03709477	61.220000	0.529500
0.03710627	61.220000	0.529500
0.03711785	61.220000	0.529500
0.03712973	61.150000	0.531100
0.03714097	61.150000	0.531100
0.03715257	61.440000	0.531100
0.03716424	61.440000	0.534200
0.03717573	61.440000	0.534200
0.03718755	54.430000	0.451700
0.03719897	54.430000	0.451700
0.03721047	54.430000	0.451700
0.03722203	64.440000	0.542500
0.03723363	64.440000	0.542500
0.03724564	64.440000	0.542500
0.03725684	68.520000	0.599800
0.03727007	68.520000	0.599800
0.03728008	68.520000	0.599800
0.03729150	68.520000	0.599800
0.03730322	68.660000	0.598800
0.03731462	68.660000	0.598800
0.03732630	68.660000	0.604100
0.03733773	68.660000	0.604100
0.03734940	68.660000	0.604100
0.03736112	68.660000	0.599200
0.03737249	68.660000	0.599200
0.03738420	68.660000	0.599200
0.03739645	68.730000	0.598800
0.03744229	68.730000	0.598800
0.03744456	68.590000	0.595700
0.03747731	68.590000	0.595700
0.03748219	68.660000	0.593700
0.03750270	68.660000	0.593700
0.03750524	68.590000	0.585700
0.03755475	68.590000	0.594500
0.03755937	68.590000	0.594500
0.03761753	68.520000	0.592500
0.03762066	68.520000	0.584400
0.03763348	68.520000	0.584400
0.03767535	68.660000	0.591200
0.03767844	68.660000	0.591200
0.03768527	68.660000	0.591200
0.03769676	68.660000	0.591200
0.03770854	68.660000	0.594100
0.03771994	68.660000	0.594100
0.03773145	68.660000	0.594100
0.03774368	68.660000	0.592000
0.03775478	68.660000	0.592000
0.03776704	68.660000	0.592000
0.03777780	68.660000	0.592000
0.03778944	68.660000	0.590000
0.03780088	68.660000	0.590000
0.03782484	69.090000	0.589900
0.03786216	69.090000	0.589900
0.03795727	61.650000	0.514800
0.03795910	63.300000	0.545900
0.03796339	63.300000	0.545900
0.03797478	63.300000	0.545900
0.03798634	63.220000	0.544800
0.03799994	63.220000	0.544800
0.03800954	63.220000	0.544800
0.03802245	63.300000	0.545900
0.03803274	63.300000	0.545900
0.03804427	63.300000	0.545900
0.03805589	63.300000	0.546400
0.03806735	63.300000	0.546400
0.03807890	63.300000	0.546400
0.03809204	63.220000	0.555500
0.03810225	63.220000	0.555500
0.03812573	63.220000	0.555500
0.03818633	62.080000	0.532800
0.03818913	62.080000	0.532800
0.03830079	68.590000	0.589300
0.03830363	68.730000	0.592800
0.03831743	68.730000	0.592800
0.03844481	68.730000	0.591700
0.03844738	68.660000	0.586800
0.03844938	68.660000	0.586800
0.03846103	68.660000	0.586800
0.03847264	68.660000	0.583800
0.03848410	68.660000	0.583800
0.03849567	68.660000	0.583800
0.03850725	68.660000	0.579300
0.03851889	68.660000	0.579300
0.03853052	68.660000	0.579300
0.03854209	68.660000	0.582800
0.03855368	68.660000	0.582800
0.03856539	68.660000	0.582800
0.03857672	68.730000	0.584200
0.03858919	68.730000	0.584200
0.03860130	68.730000	0.584200
0.03861310	68.730000	0.584200
0.03865822	68.730000	0.594500
0.03866058	68.660000	0.590100
0.03868172	68.730000	0.585400
0.03869550	68.730000	0.585400
0.03869801	68.730000	0.585400
0.03880149	68.660000	0.583500
0.03880441	65.870000	0.544000
0.03884384	65.870000	0.544000
0.03884639	57.360000	0.478300
0.03885516	61.010000	0.528000
0.03886645	61.010000	0.528000
0.03891338	61.010000	0.528000
0.03891537	61.080000	0.529700
0.03892463	61.080000	0.529700
0.03893613	61.220000	0.531900
0.03898230	61.220000	0.531900
0.03898503	61.150000	0.528800
0.03899396	61.220000	0.529900
0.03900541	61.220000	0.529900
0.03901751	61.220000	0.529900
0.03902867	61.220000	0.529200
0.03904029	61.220000	0.529200
0.03908664	61.220000	0.529200
0.03910833	61.580000	0.528400
0.03912486	54.430000	0.448900
0.03914167	64.440000	0.537700
0.03914591	64.440000	0.537700
0.03914943	64.440000	0.537700
0.03915784	64.440000	0.537700
0.03924906	68.730000	0.588300
0.03925144	68.730000	0.588300
0.03926023	68.730000	0.588300
0.03927137	68.730000	0.588300
0.03928476	68.730000	0.590900
0.03929470	68.730000	0.590900
0.03930640	68.730000	0.589600
0.03931815	68.730000	0.589600
0.03932942	68.730000	0.589600
0.03934112	68.800000	0.592900
0.03935258	68.800000	0.592900
0.03936425	68.800000	0.592900
0.03937572	68.800000	0.593700
0.03938729	68.800000	0.593700
0.03939891	68.800000	0.593700
0.03941056	68.800000	0.593700
0.03942209	68.800000	0.596100
0.03943370	68.800000	0.596100
0.03944557	68.730000	0.596800
0.03945757	68.730000	0.596800
0.03946942	68.730000	0.596800
0.03948051	68.800000	0.592700
0.03949245	68.800000	0.592700
0.03950337	68.800000	0.592700
0.03951510	68.730000	0.588700
0.03952653	68.730000	0.588700
0.03953881	68.730000	0.588700
0.03955037	68.730000	0.582500
0.03959741	68.730000	0.582500
0.03960015	68.730000	0.584100
0.03962016	68.730000	0.584100
0.03962424	68.730000	0.586200
0.03964404	68.730000	0.586200
0.03964714	68.730000	0.586200
0.03965390	68.730000	0.585100
0.03977117	68.730000	0.585100
0.03987847	61.360000	0.518000
0.03989229	63.300000	0.545900
0.03989519	63.300000	0.545900
0.03990189	63.300000	0.544800
0.03990905	63.300000	0.544800
0.03992074	63.300000	0.544800
0.03993197	63.300000	0.545400
0.03994330	63.300000	0.545400
0.03995501	63.300000	0.545400
0.03996656	63.370000	0.548700
0.03997829	63.370000	0.548700
0.03998977	63.370000	0.548700
0.04000140	63.300000	0.543900
0.04001287	63.300000	0.543900
0.04002448	63.300000	0.543900
0.04003596	61.790000	0.514600
0.04004750	61.790000	0.514600
0.04005955	61.790000	0.514600
0.04007104	61.790000	0.514600
0.04008293	58.930000	0.488700
0.04009404	58.930000	0.488700
0.04010586	66.870000	0.576500
0.04011848	66.870000	0.576500
0.04012868	66.870000	0.576500
0.04014012	68.730000	0.599400
0.04015178	68.730000	0.599400
0.04016422	68.730000	0.599400
0.04021306	68.800000	0.589400
0.04022022	68.800000	0.589400
0.04025847	68.800000	0.589400
0.04026017	68.730000	0.586900
0.04026763	68.730000	0.586900
0.04027929	68.730000	0.582500
0.04029088	68.730000	0.582500
0.04030228	68.730000	0.582500
0.04031402	68.730000	0.584900
0.04032737	68.730000	0.584900
0.04033705	68.730000	0.584900
0.04034850	68.660000	0.586600
0.04036024	68.660000	0.586600
0.04037255	68.660000	0.586600
0.04038472	68.730000	0.598200
0.04039716	68.730000	0.598200
0.04040793	68.730000	0.598200
0.04041865	68.730000	0.599500
0.04045365	68.730000	0.599500
0.04053669	68.730000	0.601200
0.04053909	68.800000	0.596400
0.04054561	68.800000	0.596400
0.04084821	68.730000	0.596700
0.04085002	61.220000	0.537100
0.04085809	61.220000	0.537100
0.04086995	61.150000	0.538800
0.04088142	61.150000	0.538800
0.04089292	61.150000	0.538800
0.04090468	61.290000	0.532400
0.04091615	61.290000	0.532400
0.04092749	61.290000	0.532400
0.04093911	61.290000	0.534200
0.04095084	61.290000	0.534200
0.04096226	61.290000	0.534200
0.04097412	61.440000	0.535700
0.04098558	61.440000	0.535700
0.04099700	61.440000	0.535700
0.04100869	58.790000	0.484500
0.04102025	58.790000	0.484500
0.04103292	58.790000	0.484500
0.04213106	58.790000	0.484500
0.04216861	68.950000	0.601300
0.04224064	69.020000	0.598800
0.04224271	68.950000	0.599300
0.04224929	68.950000	0.599300
0.04229550	68.950000	0.598900
0.04230927	68.950000	0.598500
0.04231140	68.950000	0.598500
0.04231988	68.950000	0.598500
0.04232995	68.800000	0.595500
0.04234155	68.800000	0.595500
0.04238824	68.870000	0.606000
0.04242752	68.870000	0.604600
0.04242995	68.870000	0.607200
0.04243465	68.870000	0.607200
0.04248204	68.870000	0.607200
0.04249968	68.870000	0.604400
0.04250979	68.870000	0.604400
0.04251358	68.870000	0.604800
0.04252167	68.870000	0.604800
0.04253035	68.800000	0.604900
0.04258144	68.800000	0.603300
0.04258399	68.800000	0.603300
0.04258595	68.800000	0.603300
0.04259605	68.800000	0.603300
0.04260743	66.660000	0.567000
0.04261912	66.660000	0.567000
0.04263064	66.660000	0.567000
0.04264211	57.360000	0.485000
0.04265382	57.360000	0.485000
0.04266535	57.360000	0.485000
0.04267692	61.150000	0.537300
0.04268852	61.150000	0.537300
0.04270102	61.150000	0.537300
0.04271206	61.220000	0.530300
0.04272388	61.220000	0.530300
0.04273509	61.220000	0.530300
0.04274663	61.220000	0.528700
0.04275858	61.220000	0.528700
0.04276955	61.220000	0.528700
0.04278132	61.220000	0.532100
0.04279264	61.220000	0.532100
0.04280419	61.220000	0.532100
0.04281602	61.290000	0.533000
0.04282759	61.290000	0.533000
0.04283916	61.290000	0.533000
0.04299186	61.290000	0.533000
0.04313376	68.440000	0.597000
0.04369145	68.800000	0.599200
0.04379793	63.300000	0.540300
0.04383571	63.300000	0.548900
0.04388398	63.300000	0.547900
0.04389774	58.930000	0.492300
0.04391126	58.930000	0.492300
0.04401848	58.930000	0.492300
0.04409086	68.800000	0.603800
0.04409308	68.800000	0.601100
0.04410174	68.800000	0.598600
0.04414824	68.800000	0.598600
0.04419624	2028.670000	8.701000
0.04423292	2027.320000	8.693100
0.04424660	2021.670000	8.681000
0.04428333	2021.670000	8.681000
0.04428530	2021.380000	8.680700
0.04432253	2021.380000	8.680700
0.04435949	2021.380000	8.680700
0.04436144	2022.520000	8.683500
0.04437997	2025.670000	8.689900
0.04438166	2025.670000	8.689900
0.04441492	2025.670000	8.689900
0.04445179	2026.100000	8.691300
0.04445363	2015.590000	8.669100
0.04446134	2015.590000	8.669100
0.04447274	2010.010000	8.658100
0.04451939	2010.010000	8.658100
0.04469499	2015.510000	8.669500
0.04474329	2026.310000	8.693600
0.04486126	2028.320000	8.694800
0.04486321	2023.240000	8.667100
0.04487826	2023.240000	8.667100
0.04492631	2023.240000	8.667100
0.04492845	2023.170000	8.667200
0.04501730	2021.450000	8.663500
0.04514573	2022.380000	8.665200
0.04519378	2018.520000	8.679100
0.04523047	2016.160000	8.674500
0.04526756	2017.090000	8.676300
0.04539697	2015.800000	8.673500
0.04544531	2010.220000	8.662700
0.04558594	2024.100000	8.690900
0.04558881	2038.040000	8.720000
0.04587484	2029.680000	8.702400
0.04591243	2012.220000	8.652000
0.04595113	2012.370000	8.652500
0.04617321	2012.720000	8.653800
0.04617554	2029.320000	8.702400
0.04629355	2029.320000	8.702400
0.04653946	2013.440000	8.669600
0.04654267	2030.820000	8.706900
0.04658214	2030.820000	8.706900
0.04661892	2037.110000	8.719900
0.04665563	2032.040000	8.708600
0.04665772	2030.110000	8.704600
0.04670926	2030.110000	8.704600
0.04671152	2022.240000	8.666400
0.04672071	2022.240000	8.666400
0.04673256	2022.240000	8.666400
0.04674410	2028.100000	8.680000
0.04679034	2028.100000	8.680000
0.04680468	2025.600000	8.674900
0.04706160	2024.380000	8.672900
0.04709828	2029.460000	8.704600
0.04714655	2031.890000	8.709400
0.04739190	2033.750000	8.713100
0.04795045	2031.250000	8.708000
0.04820822	2013.230000	8.638600
0.04928692	2019.730000	8.683900
0.04930150	2014.660000	8.674700
0.04931588	2014.660000	8.674700
0.04943568	2018.020000	8.681200
0.04943818	2030.960000	8.708800
0.04944019	2030.960000	8.708800
0.04945015	2030.960000	8.708800
0.04946162	2030.960000	8.708800
0.04947556	2030.960000	8.708800
0.04948480	2029.100000	8.704900
0.04949647	2029.100000	8.704900
0.04950816	2027.170000	8.695000
0.04951987	2027.170000	8.695000
0.04953141	2027.170000	8.695000
0.04954302	2027.170000	8.695000
0.04955455	2014.230000	8.639400
0.04956679	2014.230000	8.639400
0.04962451	2022.090000	8.673500
0.04962706	2017.590000	8.665700
0.04963563	2017.590000	8.665700
0.04964723	2014.370000	8.659700
0.04965862	2014.370000	8.659700
0.04972154	2026.740000	8.684800
0.04972383	2026.740000	8.684800
0.04972830	2026.740000	8.684800
0.04984399	2026.740000	8.684800
0.04984604	2015.370000	8.647100
0.04999463	2021.450000	8.674900
0.04999718	2033.470000	8.714800
0.05000701	2033.470000	8.714800
0.05001859	2033.470000	8.714800
0.05002999	2033.470000	8.714800
0.05005334	2034.040000	8.715900
0.05010253	2034.040000	8.715900
0.05010471	2030.110000	8.707400
0.05011131	2031.320000	8.709900
0.05012295	2031.320000	8.709900
0.05013446	2032.680000	8.712900
0.05014628	2032.680000	8.712900
0.05015767	2032.680000	8.712900
0.05016914	2032.680000	8.712900
0.05025181	2032.680000	8.712900
0.05025402	2032.180000	8.712200
0.05026207	2032.180000	8.712200
0.05032021	2035.330000	8.718500
0.05032226	2028.750000	8.705500
0.05033152	2028.750000	8.705500
0.05034338	2039.260000	8.726900
0.05035473	2039.260000	8.726900
0.05036609	2039.260000	8.726900
0.05042426	2034.750000	8.717600
0.05042626	2030.110000	8.707900
0.05043550	2030.110000	8.707900
0.05044701	2030.750000	8.708500
0.05056399	2030.750000	8.708500
0.05060153	2027.670000	8.681700
0.05060389	2029.180000	8.685200
0.05060978	2029.180000	8.685200
0.05062135	2023.810000	8.674800
0.05063302	2023.810000	8.674800
0.05065648	2023.810000	8.674800
0.05069345	2027.170000	8.682100
0.05069544	2031.110000	8.689800
0.05070240	2031.110000	8.689800
0.05071392	2031.110000	8.689800
0.05072558	2031.110000	8.689800
0.05078378	2026.460000	8.680600
0.05078578	2023.170000	8.672400
0.05079534	2019.160000	8.646800
0.05080678	2019.160000	8.646800
0.05081863	2019.160000	8.646800
0.05093449	2033.320000	8.705900
0.05097172	2039.190000	8.726600
0.05098582	2040.620000	8.729600
0.05098803	2040.620000	8.729600
0.05099330	2040.620000	8.729600
0.05100477	2038.550000	8.725500
0.05101796	2038.550000	8.725500
0.05106617	2038.550000	8.725500
0.05106883	2037.330000	8.723400
0.05107468	2037.330000	8.723400
0.05108615	2035.040000	8.718800
0.05109745	2035.040000	8.718800
0.05113285	2034.680000	8.717700
0.05118120	2033.680000	8.715800
0.05118375	2037.330000	8.723000
0.05119020	2037.330000	8.723000
0.05124587	2035.610000	8.719700
0.05124769	2035.610000	8.719700
0.05124991	2035.610000	8.719700
0.05125948	2036.690000	8.722300
0.05127095	2036.690000	8.722300
0.05128273	2034.610000	8.718000
0.05130608	2034.610000	8.718000
0.05132041	2034.610000	8.718000
0.05135745	2026.390000	8.701400
0.05136000	2031.110000	8.710800
0.05136416	2031.110000	8.710800
0.05137567	2031.110000	8.710800
0.05145664	2031.110000	8.710800
0.05145892	2020.740000	8.653600
0.05146865	2020.740000	8.653600
0.05152622	2027.750000	8.687000
0.05152850	2021.020000	8.674000
0.05153772	2021.020000	8.674000
0.05154919	2021.020000	8.674000
0.05156093	2021.020000	8.674000
0.05171144	2023.310000	8.679000
0.05171365	2023.100000	8.678400
0.05172331	2023.100000	8.678400
0.05173508	2023.100000	8.678400
0.05174689	2014.160000	8.645700
0.05180578	2014.160000	8.645700
0.05180782	2034.680000	8.717300
0.05181660	2034.680000	8.717300
0.05182823	2034.680000	8.717300
0.05183961	2039.480000	8.727800
0.05188719	2039.480000	8.727800
0.05189171	2036.400000	8.721800
0.05189868	2036.400000	8.721800
0.05191069	2040.910000	8.730800
0.05192190	2040.910000	8.730800
0.05193263	2040.910000	8.730800
0.05194446	2038.040000	8.725400
0.05195593	2038.040000	8.725400
0.05196737	2038.040000	8.725400
0.05197894	2041.260000	8.731600
0.05199064	2041.260000	8.731600
0.05200220	2041.260000	8.731600
0.05201354	2034.470000	8.717600
0.05202556	2034.470000	8.717600
0.05208362	2034.470000	8.717600
0.05208590	2034.040000	8.716800
0.05209471	2034.040000	8.716800
0.05210648	2034.040000	8.716800
0.05211815	2032.820000	8.714900
0.05217578	2032.820000	8.714900
0.05217799	2030.460000	8.709700
0.05218777	2030.180000	8.708800
0.05219994	2030.180000	8.708800
0.05221145	2030.180000	8.708800
0.05229381	2030.180000	8.708800
0.05229719	2032.390000	8.713100
0.05230457	2032.390000	8.713100
0.05238457	2019.950000	8.686600
0.05238705	2003.210000	8.638100
0.05239617	2003.210000	8.638100
0.05247714	1990.980000	8.597700
0.05247917	1998.920000	8.623100
0.05248880	1998.920000	8.623100
0.05254698	2010.720000	8.648000
0.05254921	2023.600000	8.675600
0.05255816	2023.600000	8.675600
0.05256939	2029.180000	8.686600
0.05261583	2029.180000	8.686600
0.05261806	2028.960000	8.685500
0.05262748	2028.960000	8.685500
0.05263900	2021.590000	8.671000
0.05265073	2021.590000	8.671000
0.05266222	2021.590000	8.671000
0.05267387	2022.020000	8.671800
0.05273299	2022.020000	8.671800
0.05273501	2015.940000	8.642300
0.05274332	2028.170000	8.694600
0.05275507	2028.170000	8.694600
0.05276654	2028.170000	8.694600
0.05281284	2031.610000	8.711200
0.05284992	2031.540000	8.710900
0.05285176	2031.320000	8.710700
0.05285955	2031.320000	8.710700
0.05291744	2038.550000	8.725600
0.05292001	2034.040000	8.716200
0.05292905	2034.040000	8.716200
0.05294084	2034.040000	8.716200
0.05295233	2030.180000	8.708600
0.05301010	2030.180000	8.708600
0.05301214	2028.600000	8.705500
0.05302155	2028.600000	8.705500
0.05303317	2029.530000	8.707800
0.05304473	2029.530000	8.707800
0.05311425	2028.600000	8.705500
0.05311669	2026.310000	8.700700
0.05312580	2027.460000	8.703600
0.05313725	2027.460000	8.703600
0.05328889	2029.320000	8.707000
0.05332595	2020.160000	8.687400
0.05347873	2009.010000	8.665200
0.05348118	2013.800000	8.660700
0.05348617	2013.800000	8.660700
0.05349782	2013.800000	8.660700
0.05350910	2014.870000	8.662500
0.05359044	2020.880000	8.674700
0.05359271	2026.100000	8.685400
0.05360201	2026.100000	8.685400
0.05367179	2025.100000	8.683100
0.05367437	2023.530000	8.680100
0.05368391	2023.530000	8.680100
0.05369516	2023.530000	8.680100
0.05375391	2029.750000	8.707300
0.05375589	2029.180000	8.706700
0.05376523	2029.180000	8.706700
0.05377648	2029.180000	8.706700
0.05383757	2028.960000	8.706400
0.05383998	2033.110000	8.715100
0.05384611	2033.110000	8.715100
0.05385771	2032.320000	8.713100
0.05387002	2032.320000	8.713100
0.05401998	2032.320000	8.713100
0.05402236	2005.290000	8.657500
0.05403228	2002.430000	8.651900
0.05404347	2002.430000	8.651900
0.05405523	2002.430000	8.651900
0.05414803	2022.520000	8.693800
0.05414986	2022.520000	8.693800
0.05420611	2019.520000	8.687500
0.05420830	2017.370000	8.683500
0.05421777	2017.370000	8.683500
0.05422962	2017.370000	8.683500
0.05424130	2014.440000	8.677300
0.05429920	2011.940000	8.673400
0.05430115	2007.220000	8.649400
0.05431084	2007.220000	8.649400
0.05432238	2007.220000	8.649400
0.05433478	2007.220000	8.649400
0.05439221	2007.570000	8.632500
0.05439453	2007.720000	8.642500
0.05441184	2007.720000	8.642500
0.05441527	2007.500000	8.642100
0.05442697	2007.500000	8.642100
0.05457743	1999.990000	8.626800
0.05457906	2016.440000	8.660800
0.05458919	2016.440000	8.660800
0.05460078	2016.440000	8.660800
0.05461221	2006.720000	8.625100
0.05462392	2006.720000	8.625100
0.05463569	2006.720000	8.625100
0.05464708	2006.720000	8.625100
0.05467075	2019.590000	8.674900
0.05467311	2019.590000	8.674900
0.05468194	2019.590000	8.674900
0.05469381	2019.730000	8.687300
0.05470499	2019.730000	8.687300
0.05476166	2025.030000	8.698600
0.05476367	2025.030000	8.698600
0.05477457	2025.030000	8.698600
0.05478619	2023.310000	8.695100
0.05479869	2023.310000	8.695100
0.05488241	2011.580000	8.670900
0.05488478	2014.370000	8.677100
0.05489132	2014.370000	8.677100
0.05497587	2011.290000	8.670200
0.05497808	2019.090000	8.686700
0.05498399	2019.090000	8.686700
0.05500655	2019.090000	8.686700
0.05505722	2020.740000	8.690300
0.05505956	2016.800000	8.682100
0.05516941	70.020000	0.605100
0.05517161	70.020000	0.607000
0.05522086	69.950000	0.601900
0.05522258	69.950000	0.601900
0.05522720	69.950000	0.601900
0.05523877	69.950000	0.594200
0.05525046	69.950000	0.594200
0.05526214	69.950000	0.594200
0.05527362	69.880000	0.588500
0.05528571	69.880000	0.588500
0.05529715	69.880000	0.588500
0.05530884	69.880000	0.585700
0.05532060	69.880000	0.585700
0.05533189	69.880000	0.585700
0.05534382	69.880000	0.585700
0.05535589	69.880000	0.584200
0.05540859	69.880000	0.588300
0.05541102	69.880000	0.588300
0.05541360	69.880000	0.588300
0.05542520	69.880000	0.588300
0.05543728	69.880000	0.588300
0.05544896	69.880000	0.593200
0.05546199	69.880000	0.593200
0.05547274	69.880000	0.593200
0.05548777	69.950000	0.599300
0.05550064	69.950000	0.599300
0.05551080	69.950000	0.599300
0.05551905	69.950000	0.599300
0.05553073	69.950000	0.596700
0.05554248	69.950000	0.596700
0.05555439	69.880000	0.597800
0.05556593	69.880000	0.597800
0.05558894	69.800000	0.599100
0.05559111	69.800000	0.599100
0.05560021	69.800000	0.599100
0.05561189	69.800000	0.599100
0.05562336	69.880000	0.597200
0.05563516	69.880000	0.597200
0.05569515	59.930000	0.492000
0.05569757	62.010000	0.523200
0.05570483	62.010000	0.523200
0.05571634	62.010000	0.523200
0.05572766	64.370000	0.551800
0.05580878	64.370000	0.551800
0.05581115	64.370000	0.552900
0.05582137	64.370000	0.552900
0.05591361	64.370000	0.549300
0.05591598	64.370000	0.549300
0.05616823	64.370000	0.549300
0.05617205	70.020000	0.601700
0.05617991	70.020000	0.601700
0.05619167	70.020000	0.586100
0.05624939	69.950000	0.588300
0.05625135	70.090000	0.586100
0.05626291	70.090000	0.586100
0.05627273	70.090000	0.586100
0.05628425	70.020000	0.586600
0.05629589	70.020000	0.586600
0.05630870	70.020000	0.586600
0.05632056	70.020000	0.591600
0.05633294	70.020000	0.591600
0.05634361	70.020000	0.591600
0.05635524	70.020000	0.591600
0.05636707	70.090000	0.602400
0.05637772	70.090000	0.602400
0.05638938	70.090000	0.599700
0.05640108	70.090000	0.599700
0.05641243	70.090000	0.599700
0.05642431	70.090000	0.594700
0.05643595	70.090000	0.594700
0.05644802	70.090000	0.594700
0.05645903	70.090000	0.596300
0.05647067	70.090000	0.596300
0.05648223	70.090000	0.596300
0.05649396	70.020000	0.592800
0.05650559	70.020000	0.592800
0.05651722	70.020000	0.592800
0.05652887	70.020000	0.592800
0.05654061	69.950000	0.596600
0.05655209	69.950000	0.596600
0.05656406	70.020000	0.593800
0.05657582	70.020000	0.593800
0.05658749	70.020000	0.593800
0.05659900	67.590000	0.556600
0.05661097	67.590000	0.556600
0.05662340	67.590000	0.556600
0.05663500	53.710000	0.442600
0.05664655	53.710000	0.442600
0.05671095	53.710000	0.442600
0.05671331	62.650000	0.536700
0.05671568	62.650000	0.536700
0.05672723	62.650000	0.536700
0.05673897	62.650000	0.530600
0.05675113	62.650000	0.530600
0.05681076	62.650000	0.530600
0.05681319	62.650000	0.530400
0.05681998	62.650000	0.530400
0.05683200	62.650000	0.530400
0.05684439	62.650000	0.535800
0.05690079	63.080000	0.541900
0.05690299	63.080000	0.541900
0.05691311	60.220000	0.496100
0.05692411	60.220000	0.496100
0.05704000	60.220000	0.496100
0.05707712	70.090000	0.594300
0.05707948	70.160000	0.593600
0.05708648	70.160000	0.593600
0.05709784	70.160000	0.593600
0.05710934	70.160000	0.593600
0.05736466	70.160000	0.599200
0.05736718	70.160000	0.596400
0.05737646	70.160000	0.596400
0.05738789	70.160000	0.596400
0.05744571	70.230000	0.597200
0.05744771	70.160000	0.595300
0.05745747	70.160000	0.595300
0.05746958	70.300000	0.597400
0.05748082	70.300000	0.597400
0.05753927	70.300000	0.596600
0.05754166	70.230000	0.595700
0.05756215	70.230000	0.595700
0.05756426	62.080000	0.513900
0.05757366	62.080000	0.513900
0.05763193	62.080000	0.513900
0.05763654	61.440000	0.513100
0.05764300	64.650000	0.548600
0.05765531	64.650000	0.548600
0.05766671	64.730000	0.548600
0.05781719	64.730000	0.544200
0.05781956	64.650000	0.551700
0.05782832	64.650000	0.551700
0.05783992	64.940000	0.545100
0.05785170	64.940000	0.545100
0.05793384	59.720000	0.490100
0.05793767	69.660000	0.599300
0.05794648	69.660000	0.599300
0.05806365	70.450000	0.603400
0.05810113	70.300000	0.592100
0.05810350	70.380000	0.591800
0.05810810	70.380000	0.591800
0.05811963	70.380000	0.591800
0.05813141	70.300000	0.592200
0.05820177	70.380000	0.598000
0.05820501	70.380000	0.598000
0.05821501	70.380000	0.598000
0.05822412	70.300000	0.592000
0.05847896	70.300000	0.592000
0.05848059	70.380000	0.598000
0.05849038	70.380000	0.598000
0.05850326	68.730000	0.562400
0.05856014	53.710000	0.436100
0.05856204	53.710000	0.436100
0.05857139	53.710000	0.436100
0.05858334	62.870000	0.531100
0.05859449	62.870000	0.531100
0.05865264	62.940000	0.535100
0.05865446	62.940000	0.532000
0.05866389	62.940000	0.532000
0.05867564	62.940000	0.532500
0.05868720	62.940000	0.532500
0.05878036	62.870000	0.533100
0.05878227	62.870000	0.533100
0.05883848	63.010000	0.530500
0.05884030	60.510000	0.491700
0.05885002	61.360000	0.501200
0.05886176	61.360000	0.501200
0.05887334	61.360000	0.501200
0.05912781	70.090000	0.589900
0.05912953	70.380000	0.596400
0.05913999	70.380000	0.591300
0.05915159	70.380000	0.591300
0.05920958	70.300000	0.599200
0.05921122	70.300000	0.599200
0.05922110	70.300000	0.599200
0.05923253	70.380000	0.611200
0.05924479	70.380000	0.611200
0.05949878	70.380000	0.611200
0.05950042	65.510000	0.537100
0.05951088	60.510000	0.499200
0.05952274	60.510000	0.499200
0.05953432	60.510000	0.499200
0.05954563	64.800000	0.555400
0.05955737	64.800000	0.555400
0.05956885	64.800000	0.555400
0.05958043	64.800000	0.551800
0.05959196	64.800000	0.551800
0.05960362	64.800000	0.551800
0.05961584	64.800000	0.551800
0.05967561	64.800000	0.548100
0.05967714	64.800000	0.548100
0.05968514	64.800000	0.548100
0.05969655	64.800000	0.548100
0.05970810	64.800000	0.548100
0.05971973	64.730000	0.546600
0.05973144	64.730000	0.546600
0.05974318	64.730000	0.546600
0.05975483	65.010000	0.548400
0.05976632	65.010000	0.548400
0.05977814	65.010000	0.548400
0.05978949	65.010000	0.548400
0.05980110	57.220000	0.467900
0.05981285	57.220000	0.467900
0.05982466	67.370000	0.572200
0.05983620	67.370000	0.572200
0.05985237	67.370000	0.572200
0.05985971	70.590000	0.600700
0.05987148	70.590000	0.600700
0.05988282	70.590000	0.600700
0.05989418	70.520000	0.601900
0.05990623	70.520000	0.601900
0.05991782	70.520000	0.601900
0.05992911	70.520000	0.600500
0.05994074	70.520000	0.600500
0.05995204	70.520000	0.600500
0.05996374	70.520000	0.600500
0.05997531	70.450000	0.596800
0.05998709	70.450000	0.596800
0.06025216	70.520000	0.597300
0.06026740	70.520000	0.595000
0.06028076	70.450000	0.593100
0.06028240	70.450000	0.593100
0.06028839	70.450000	0.593100
0.06030008	70.450000	0.593100
0.06031171	70.380000	0.582500
0.06032341	70.380000	0.582500
0.06033512	70.380000	0.582500
0.06034681	70.520000	0.584800
0.06035859	70.520000	0.584800
0.06036997	70.520000	0.584800
0.06038169	70.450000	0.592100
0.06039313	70.450000	0.592100
0.06040479	70.450000	0.592100
0.06041628	69.230000	0.567000
0.06042785	69.230000	0.567000
0.06043956	69.230000	0.567000
0.06045115	69.230000	0.567000
0.06050600	56.140000	0.457200
0.06050796	62.720000	0.530400
0.06050986	62.720000	0.530400
0.06052109	63.150000	0.538800
0.06053257	63.150000	0.538800
0.06054421	63.150000	0.538800
0.06062536	63.150000	0.537200
0.06062740	63.150000	0.540600
0.06063689	63.150000	0.540600
0.06069161	63.220000	0.540100
0.06069331	63.220000	0.540400
0.06069514	63.220000	0.540400
0.06070653	63.220000	0.540400
0.06071818	63.220000	0.540400
0.06072978	62.080000	0.517700
0.06078809	62.080000	0.517700
0.06078981	70.300000	0.589600
0.06079958	70.300000	0.589600
0.06081123	70.300000	0.589600
0.06082297	70.300000	0.589600
0.06089534	70.660000	0.598400
0.06090816	70.730000	0.594000
0.06092376	70.730000	0.594000
0.06094216	70.730000	0.594000
0.06094721	70.730000	0.596300
0.06095259	70.730000	0.596300
0.06096141	70.730000	0.596300
0.06097322	70.730000	0.596500
0.06098468	70.730000	0.596500
0.06099620	70.730000	0.596500
0.06100779	70.730000	0.597100
0.06101963	70.730000	0.597100
0.06103221	70.730000	0.597100
0.06104286	70.810000	0.601500
0.06105434	70.810000	0.601500
0.06106598	70.810000	0.601500
0.06107775	70.810000	0.597900
0.06108948	70.810000	0.597900
0.06110104	70.810000	0.597900
0.06111288	70.810000	0.586600
0.06112410	70.810000	0.586600
0.06113565	70.810000	0.586600
0.06114730	70.880000	0.607800
0.06116005	70.880000	0.607800
0.06117084	70.880000	0.607800
0.06118213	70.810000	0.608700
0.06119383	70.810000	0.608700
0.06120595	70.810000	0.608700
0.06121699	70.880000	0.597600
0.06122867	70.880000	0.597600
0.06124067	70.880000	0.597600
0.06125203	70.810000	0.598500
0.06126361	70.810000	0.598500
0.06127519	70.880000	0.599600
0.06128699	70.880000	0.599600
0.06129838	70.880000	0.599600
0.06130986	70.880000	0.599600
0.06132142	70.810000	0.595500
0.06133316	70.810000	0.595500
0.06134470	70.810000	0.595500
0.06135631	70.810000	0.594800
0.06136789	70.810000	0.594800
0.06137957	70.810000	0.594800
0.06139142	69.950000	0.577400
0.06140299	69.950000	0.577400
0.06141434	69.950000	0.577400
0.06142608	60.720000	0.493200
0.06143767	60.720000	0.493200
0.06144938	65.150000	0.545900
0.06146366	65.150000	0.545900
0.06148479	65.150000	0.545900
0.06148748	65.230000	0.548400
0.06149722	65.230000	0.548400
0.06150809	65.230000	0.548400
0.06153128	65.230000	0.548400
0.06153347	65.150000	0.545700
0.06154249	65.150000	0.545700
0.06155419	65.150000	0.545700
0.06156576	65.150000	0.547600
0.06157708	65.150000	0.547600
0.06158884	65.150000	0.547600
0.06160057	65.080000	0.545100
0.06161259	65.080000	0.545100
0.06162362	65.080000	0.545100
0.06163684	65.080000	0.545100
0.06164667	65.080000	0.545100
0.06169359	65.080000	0.545100
0.06169685	65.370000	0.544700
0.06170545	56.710000	0.463100
0.06171626	56.710000	0.463100
0.06172740	56.710000	0.463100
0.06173946	67.730000	0.563700
0.06175102	67.730000	0.563700
0.06176231	70.590000	0.591000
0.06177406	70.590000	0.591000
0.06178586	70.590000	0.591000
0.06179758	70.590000	0.593400
0.06180922	70.590000	0.593400
0.06182181	70.590000	0.593400
0.06183278	70.590000	0.593400
0.06184462	70.730000	0.598800
0.06185631	70.730000	0.598800
0.06186777	70.730000	0.598800
0.06187928	70.660000	0.599900
0.06189081	70.660000	0.599900
0.06190255	70.660000	0.599900
0.06191418	70.730000	0.595700
0.06192567	70.730000	0.595700
0.06193705	70.730000	0.600600
0.06194903	70.730000	0.600600
0.06196326	70.730000	0.600600
0.06197345	70.730000	0.593800
0.06198617	70.730000	0.593800
0.06199510	70.730000	0.593800
0.06200667	70.730000	0.593800
0.06201848	70.730000	0.594900
0.06202979	70.730000	0.594900
0.06204134	70.730000	0.594900
0.06205304	70.810000	0.597500
0.06206468	70.810000	0.597500
0.06207609	70.810000	0.597500
0.06208785	70.660000	0.596500
0.06209949	70.660000	0.596500
0.06211081	70.660000	0.599600
0.06212249	70.660000	0.599600
0.06213403	70.660000	0.599600
0.06214711	70.660000	0.599600
0.06215814	70.730000	0.601700
0.06216984	70.730000	0.601700
0.06218145	70.730000	0.601700
0.06219304	70.730000	0.600000
0.06220476	70.730000	0.600000
0.06228670	70.730000	0.601100
0.06228839	70.730000	0.598600
0.06229727	70.730000	0.598600
0.06255199	70.730000	0.598600
0.06255421	70.810000	0.596000
0.06256385	70.810000	0.596000
0.06257542	68.800000	0.562000
0.06265683	59.500000	0.486900
0.06265853	63.150000	0.535600
0.06266808	63.150000	0.535600
0.06272679	63.220000	0.534000
0.06272853	63.220000	0.534000
0.06273741	63.220000	0.534000
0.06274975	63.220000	0.534000
0.06276083	63.220000	0.534000
0.06301554	63.150000	0.524700
0.06301747	70.590000	0.616900
0.06302906	70.590000	0.591200
0.06303999	70.590000	0.591200
0.06312146	70.590000	0.591200
0.06312328	70.660000	0.592900
0.06313333	70.660000	0.592900
0.06315685	70.660000	0.592900
0.06319345	70.660000	0.597200
0.06319527	70.660000	0.597200
0.06320279	70.660000	0.597200
0.06321443	70.660000	0.597200
0.06322616	70.660000	0.597200
0.06331905	70.660000	0.596600
0.06332105	70.660000	0.596600
0.06337186	70.660000	0.595900
0.06337351	70.660000	0.595900
0.06337721	70.660000	0.595900
0.06338861	70.660000	0.595900
0.06340005	70.660000	0.595900
0.06341193	70.660000	0.598900
0.06342387	70.660000	0.598900
0.06343523	70.590000	0.592300
0.06345844	70.590000	0.592300
0.06346022	70.590000	0.592300
0.06346980	70.590000	0.592300
0.06348118	70.590000	0.592300
0.06349292	70.590000	0.592300
0.06350411	70.590000	0.592300
0.06356008	63.800000	0.523100
0.06356207	63.800000	0.523100
0.06356370	63.800000	0.523100
0.06357368	61.150000	0.507600
0.06358530	61.150000	0.507600
0.06359734	61.150000	0.507600
0.06367824	65.010000	0.551200
0.06368007	64.940000	0.546000
0.06368957	64.940000	0.546000
0.06374787	64.940000	0.546000
0.06374957	64.870000	0.543600
0.06375937	64.870000	0.543600
0.06377120	64.870000	0.543600
0.06378248	64.870000	0.546700
0.06384064	64.870000	0.546700
0.06384252	63.220000	0.514300
0.06385407	63.220000	0.514300
0.06387558	58.930000	0.472200
0.06387745	58.930000	0.472200
0.06400512	58.930000	0.472200
0.06402032	70.660000	0.592200
0.06402328	70.660000	0.592200
0.06402649	70.660000	0.592200
0.06403778	70.660000	0.600300
0.06404966	70.660000	0.600300
0.06406108	70.660000	0.597300
0.06408448	70.660000	0.597300
0.06408674	70.660000	0.597300
0.06409588	70.590000	0.595200
0.06411910	70.590000	0.595200
0.06412089	70.590000	0.595200
0.06413045	70.660000	0.594700
0.06414263	70.660000	0.594700
0.06415407	70.660000	0.594700
0.06423509	70.590000	0.596600
0.06423736	70.730000	0.597400
0.06424652	70.730000	0.597400
0.06430441	70.730000	0.593200
0.06430683	70.730000	0.590000
0.06431598	70.730000	0.590000
0.06432797	70.730000	0.590000
0.06433934	70.590000	0.588500
0.06436257	70.590000	0.588500
0.06439951	70.590000	0.588500
0.06440154	70.520000	0.586400
0.06440914	70.520000	0.586400
0.06442088	70.520000	0.586400
0.06443273	70.520000	0.586400
0.06458334	70.450000	0.590800
0.06458571	63.080000	0.534300
0.06459580	63.080000	0.534300
0.06460737	63.080000	0.534300
0.06461891	63.150000	0.534100
0.06487383	63.150000	0.534100
0.06487586	70.020000	0.590500
0.06488575	70.660000	0.595800
0.06489773	70.660000	0.595800
0.06497897	70.660000	0.595800
0.06498104	70.590000	0.595900
0.06499012	70.590000	0.595900
0.06514063	70.590000	0.598300
0.06514274	70.660000	0.593500
0.06515336	70.660000	0.593500
0.06521120	70.590000	0.595100
0.06522531	70.520000	0.592000
0.06522757	70.520000	0.592000
0.06523498	70.590000	0.592800
0.06524637	70.590000	0.592800
0.06525788	70.590000	0.592800
0.06530454	70.590000	0.592800
0.06531866	70.520000	0.581400
0.06532087	70.520000	0.581400
0.06532823	70.520000	0.581400
0.06533980	70.520000	0.581400
0.06535157	70.520000	0.589500
0.06536314	70.520000	0.589500
0.06539262	70.520000	0.590100
0.06540356	70.520000	0.590100
0.06540552	70.520000	0.590100
0.06545594	70.520000	0.587900
0.06545811	66.160000	0.533600
0.06546728	66.160000	0.533600
0.06547898	66.160000	0.533600
0.06549051	60.650000	0.495800
0.06554889	60.650000	0.495800
0.06555102	65.010000	0.549700
0.06555981	65.010000	0.549700
0.06557148	65.010000	0.549700
0.06558303	65.010000	0.549700
0.06564116	64.940000	0.548600
0.06564369	64.940000	0.545700
0.06565267	64.940000	0.545700
0.06566451	64.940000	0.545700
0.06567682	64.940000	0.545700
0.06573382	64.870000	0.540800
0.06573726	65.080000	0.542100
0.06574523	65.080000	0.542100
0.06575709	65.080000	0.542100
0.06576904	56.930000	0.465400
0.06582638	56.930000	0.465400
0.06582890	67.090000	0.559300
0.06583802	70.520000	0.594400
0.06584999	70.520000	0.594400
0.06586183	70.380000	0.592500
0.06611616	70.380000	0.592500
0.06611926	70.730000	0.597100
0.06620795	70.730000	0.597100
0.06622832	70.730000	0.587900
0.06623104	70.730000	0.587900
0.06623433	70.730000	0.587900
0.06631550	70.660000	0.580200
0.06631804	70.810000	0.580100
0.06632663	70.730000	0.579800
0.06638435	70.810000	0.587500
0.06638653	70.810000	0.587500
0.06639721	70.810000	0.587500
0.06640693	70.810000	0.587500
0.06641876	70.810000	0.587500
0.06647655	57.220000	0.460100
0.06647906	62.720000	0.517000
0.06648817	62.720000	0.517000
0.06649971	63.220000	0.522300
0.06651140	63.220000	0.522300
0.06676593	63.220000	0.536500
0.06676821	70.160000	0.591400
0.06677815	70.160000	0.591400
0.06687082	71.020000	0.595800
0.06687310	71.020000	0.595800
0.06688212	71.020000	0.595800
0.06713661	71.020000	0.595800
0.06713863	71.020000	0.595300
0.06714931	71.020000	0.590600
0.06716094	71.020000	0.590600
0.06741576	71.020000	0.590600
0.06741971	60.150000	0.490000
0.06753381	65.300000	0.549700
0.06764182	65.300000	0.546000
0.06767894	57.360000	0.465900
0.06768093	57.360000	0.465900
0.06768366	57.360000	0.465900
0.06769531	57.360000	0.465900
0.06770670	66.800000	0.553300
0.06771837	66.800000	0.553300
0.06777826	66.800000	0.553300
0.06778047	71.090000	0.595400
0.06778793	71.090000	0.595400
0.06779940	71.090000	0.595400
0.06781072	71.090000	0.596100
0.06786902	71.090000	0.596100
0.06787156	71.090000	0.596100
0.06788045	71.160000	0.591500
0.06789199	71.160000	0.591500
0.06790350	71.160000	0.591500
0.06796156	71.160000	0.591800
0.06796394	71.160000	0.593900
0.06797329	71.160000	0.593900
0.06798478	71.160000	0.593300
0.06799638	71.160000	0.593300
0.06814662	71.160000	0.593300
0.06814875	71.160000	0.582200
0.06817007	71.090000	0.588300
0.06817212	71.090000	0.588300
0.06818197	71.090000	0.588300
0.06823546	71.160000	0.592700
0.06827516	71.160000	0.592700
0.06827745	71.160000	0.602900
0.06839565	71.160000	0.602900
0.06839953	63.010000	0.535200
0.06840269	63.650000	0.538900
0.06841510	63.650000	0.538900
0.06842573	63.650000	0.538900
0.06843737	63.650000	0.538900
0.06844885	63.650000	0.537300
0.06846075	63.650000	0.537300
0.06847219	63.720000	0.544800
0.06848400	63.720000	0.544800
0.06849568	63.720000	0.544800
0.06850712	63.720000	0.544100
0.06851880	63.720000	0.544100
0.06853061	63.720000	0.544100
0.06857696	63.800000	0.548500
0.06857932	63.800000	0.548500
0.06858914	63.800000	0.548500
0.06860021	63.800000	0.548500
0.06871639	63.080000	0.520200
0.06876543	71.310000	0.602100
0.06876779	71.230000	0.597100
0.06877438	71.230000	0.597100
0.06878595	71.310000	0.604600
0.06893685	71.310000	0.604600
0.06893910	71.230000	0.591400
0.06894906	71.230000	0.591400
0.06921722	71.230000	0.591400
0.06921940	71.310000	0.600600
0.06922961	71.310000	0.600600
0.06923966	71.310000	0.601700
0.06929797	71.310000	0.601700
0.06930028	59.000000	0.478600
0.06930981	59.000000	0.478600
0.06942603	59.000000	0.478600
0.06942846	65.730000	0.547900
0.06951890	65.510000	0.547700
0.06952140	65.510000	0.547700
0.06957738	65.510000	0.547700
0.06957975	58.930000	0.483900
0.06958845	58.930000	0.483900
0.06960019	58.930000	0.483900
0.06961159	66.590000	0.546500
0.06967019	66.590000	0.546500
0.06967293	71.160000	0.594900
0.06968163	71.160000	0.594900
0.06969272	71.090000	0.601600
0.06994721	71.090000	0.601600
0.06994951	71.160000	0.601300
0.06995951	71.160000	0.602100
0.06997091	71.160000	0.602100
0.06998245	71.160000	0.602100
0.07006821	71.020000	0.595800
0.07007043	71.020000	0.595800
0.07007547	71.020000	0.595800
0.07013313	71.020000	0.595800
0.07013538	71.090000	0.595900
0.07014503	71.090000	0.595900
0.07015647	71.090000	0.595900
0.07016817	71.090000	0.595900
0.07022608	71.020000	0.591100
0.07022846	70.590000	0.586100
0.07024084	64.370000	0.525500
0.07035410	64.370000	0.525500
0.07035654	63.650000	0.525700
0.07041193	63.650000	0.525700
0.07041424	63.650000	0.522700
0.07042388	63.650000	0.522700
0.07043545	63.650000	0.522700
0.07044737	63.650000	0.524400
0.07052884	63.650000	0.530000
0.07053142	63.580000	0.532300
0.07054003	63.580000	0.532300
0.07062745	63.580000	0.538900
0.07062944	63.580000	0.539100
0.07063235	63.580000	0.539100
0.07064433	63.580000	0.539100
0.07065685	63.720000	0.538100
0.07066738	63.720000	0.538100
0.07067905	63.720000	0.538100
0.07069083	63.720000	0.538100
0.07070267	63.580000	0.536300
0.07071461	63.580000	0.536300
0.07072563	63.580000	0.536300
0.07080729	63.720000	0.543400
0.07080914	63.720000	0.543400
0.07081813	63.720000	0.543400
0.07091126	63.870000	0.539500
0.07091363	63.870000	0.539500
0.07227980	64.300000	0.542300
0.07245622	64.370000	0.550200
0.07245858	64.370000	0.550200
0.07246456	64.370000	0.549600
0.07247552	64.370000	0.549600
0.07248714	64.370000	0.549600
0.07254535	64.440000	0.545400
0.07254736	64.370000	0.540100
0.07255690	64.370000	0.540100
0.07256845	64.440000	0.542600
0.07310082	64.440000	0.542600
0.07310323	71.230000	0.567500
0.07311369	71.230000	0.567500
0.07312500	84.540000	0.596800
0.07313682	84.540000	0.596800
0.07314819	84.540000	0.596800
0.07315980	67.660000	0.466800
0.07317184	67.660000	0.466800
0.07318330	67.660000	0.466800
0.07329917	57.290000	0.394000
0.07354457	21.950000	0.186500
0.07366292	17.730000	0.182500
0.07367697	34.180000	0.275400
0.07367916	34.180000	0.275400
0.07369374	34.180000	0.275400
0.07369617	34.180000	0.275400
0.07371567	34.180000	0.275400
0.07382229	34.180000	0.275400
0.07382494	4.290000	0.057900
0.07390836	4.290000	0.057800
0.07391093	4.290000	0.058600
0.07413367	4.290000	0.058300
0.07424047	4.290000	0.058500
0.07427788	4.290000	0.058500
0.07431507	4.290000	0.058500
0.07442156	4.290000	0.058700
0.07447034	4.290000	0.058600
0.07471612	4.290000	0.058700
0.07496192	4.290000	0.059100
0.07532301	4.290000	0.059000
0.07544111	28.390000	0.241400
0.07544384	38.620000	0.290900
0.07544634	38.620000	0.290900
0.07545646	38.620000	0.290900
0.07546797	38.620000	0.290900
0.07551472	38.260000	0.288200
0.07551747	38.120000	0.287200
0.07563058	38.120000	0.287200
0.07563286	25.960000	0.225800
0.07564212	25.960000	0.225800
0.07565406	25.740000	0.225000
0.07566472	25.740000	0.225000
0.07567669	25.740000	0.225000
0.07568797	25.740000	0.225000
0.07569953	25.600000	0.224900
0.07571137	25.600000	0.224900
0.07572387	25.600000	0.224900
0.07573428	18.810000	0.182400
0.07574578	18.810000	0.182400
0.07575818	18.810000	0.182400
0.07576913	18.230000	0.182100
0.07578068	18.230000	0.182100
0.07580416	18.090000	0.182200
0.07580609	18.090000	0.182200
0.07581571	18.090000	0.182200
0.07582706	18.090000	0.182300
0.07585000	18.090000	0.182300
0.07585193	18.090000	0.182300
0.07586169	18.090000	0.182300
0.07590843	18.020000	0.181800
0.07594549	14.870000	0.085400
0.07594782	14.870000	0.085400
0.07595487	14.870000	0.085400
0.07597824	14.870000	0.085400
0.07598061	14.870000	0.085400
0.07598985	14.870000	0.085400
0.07600120	14.870000	0.085100
0.07601273	14.870000	0.085100
0.07605940	14.870000	0.085100
0.07606156	14.870000	0.085000
0.07607104	14.870000	0.085000
0.07608248	14.870000	0.085200
0.07609399	14.870000	0.085200
0.07610560	14.940000	0.085000
0.07611694	14.940000	0.085000
0.07612863	14.940000	0.085000
0.07614073	14.940000	0.084800
0.07618700	14.940000	0.084700
0.07618954	14.940000	0.084700
0.07619810	14.940000	0.084700
0.07638336	14.940000	0.084700
0.07642043	14.940000	0.084900
0.07642297	14.940000	0.084900
0.07646451	14.940000	0.084700
0.07646674	14.940000	0.084700
0.07657995	14.940000	0.084700
0.07658250	12.940000	0.080500
0.07659204	27.030000	0.244700
0.07671994	27.030000	0.244700
0.07673418	33.470000	0.282600
0.07673618	34.040000	0.284000
0.07674296	34.040000	0.284000
0.07689791	34.680000	0.287300
0.07689990	31.900000	0.278000
0.07769499	33.610000	0.293200
0.07787120	33.040000	0.272300
0.07788568	32.040000	0.280900
0.07795815	33.400000	0.291700
0.07796037	35.470000	0.307300
0.07799772	35.470000	0.307300
0.07824295	37.120000	0.321100
0.07848767	43.630000	0.375700
0.07852564	28.100000	0.252000
0.07965060	28.100000	0.252000
0.07975750	42.550000	0.366800
0.07977154	42.410000	0.362700
0.08001721	42.410000	0.364700
0.08106075	39.330000	0.326400
0.08114484	35.970000	0.299000
0.08114703	35.970000	0.299000
0.08149622	35.970000	0.299000
0.08149876	38.400000	0.333300
0.08150793	38.400000	0.333300
0.08176260	38.480000	0.332800
0.08186870	38.480000	0.337500
0.08206856	37.830000	0.315200
0.08207169	42.620000	0.366700
0.08212531	42.550000	0.372000
0.08212750	42.550000	0.372000
0.08234323	42.550000	0.372000
0.08234560	35.040000	0.288300
0.08243661	39.410000	0.344100
0.08243898	39.410000	0.344100
0.08252913	39.410000	0.340500
0.08261281	39.410000	0.340500
0.08261568	39.410000	0.344300
0.08262154	39.410000	0.344300
0.08295735	39.410000	0.346100
0.08295975	39.550000	0.342800
0.08296854	39.550000	0.342800
0.08298021	39.550000	0.344500
0.08326955	39.550000	0.344500
0.08327209	39.550000	0.343400
0.08336341	39.620000	0.348000
0.08336600	39.620000	0.348000
0.08353898	39.550000	0.346000
0.08364561	39.620000	0.342200
0.08386932	39.550000	0.350300
0.08401087	39.550000	0.344700
0.08401343	39.690000	0.345700
0.08514794	14.590000	0.085600
0.08515010	14.590000	0.085600
0.08516041	14.590000	0.085600
0.08517226	14.590000	0.085800
0.08518373	14.590000	0.085800
0.08519539	14.590000	0.085800
0.08520692	14.590000	0.084600
0.08525825	14.590000	0.084600
0.08526029	14.510000	0.084500
0.08526509	14.510000	0.084500
0.08527674	14.510000	0.084300
0.08528832	14.510000	0.084300
0.08529983	14.510000	0.084300
0.08531163	14.590000	0.084200
0.08532314	14.590000	0.084200
0.08533471	14.590000	0.084200
0.08534630	14.510000	0.084200
0.08535777	14.510000	0.084200
0.08537108	14.510000	0.084200
0.08538111	14.590000	0.084600
0.08539277	14.590000	0.084600
0.08540436	14.590000	0.084400
0.08541671	14.590000	0.084400
0.08542736	14.590000	0.084400
0.08543891	14.590000	0.084400
0.08545130	14.510000	0.084400
0.08553961	14.510000	0.084900
0.08554242	14.590000	0.083600
0.08556758	14.590000	0.083600
0.08557231	14.510000	0.083400
0.08557829	14.510000	0.083400
0.08558992	14.510000	0.083600
0.08560146	14.510000	0.083600
0.08561310	14.510000	0.083600
0.08562465	14.510000	0.083900
0.08563628	14.510000	0.083900
0.08564808	14.510000	0.083900
0.08565929	14.510000	0.083900
0.08567102	14.510000	0.083900
0.08568256	14.510000	0.083900
0.08569416	14.510000	0.083900
0.08570603	14.510000	0.083900
0.08571716	14.590000	0.084100
0.08572909	14.590000	0.084100
0.08574071	14.590000	0.084100
0.08581778	4.290000	0.058300
0.08582329	4.290000	0.058300
0.08582522	4.290000	0.058300
0.08583382	4.290000	0.059100
0.08584524	4.290000	0.059100
0.08585659	4.290000	0.059100
0.08586818	28.890000	0.263500
0.08587984	28.890000	0.263500
0.08589159	22.740000	0.208200
0.08590321	22.740000	0.208200
0.08591476	22.740000	0.208200
0.08592631	22.740000	0.208200
0.08593792	15.870000	0.145900
0.08594943	15.870000	0.145900
0.08596110	15.870000	0.145900
0.08597253	17.090000	0.157100
0.08598413	17.090000	0.157100
0.08599594	17.090000	0.157100
0.08600773	16.590000	0.153300
0.08635000	42.050000	0.351800
0.08643416	40.050000	0.349700
0.08644900	40.050000	0.349700
0.08705359	40.050000	0.349700
0.08713745	51.140000	0.434800
0.08713946	51.140000	0.434800
0.08714524	51.140000	0.434800
0.08715691	51.140000	0.434800
0.08716869	51.140000	0.434800
0.08718024	54.140000	0.468700
0.08719182	54.140000	0.468700
0.08720351	54.140000	0.468700
0.08721494	56.210000	0.483200
0.08722670	56.210000	0.483200
0.08723825	56.210000	0.483200
0.08724994	57.570000	0.491000
0.08755193	57.140000	0.488100
0.08755476	43.630000	0.359800
0.08764596	48.270000	0.411300
0.08775302	48.270000	0.411300
0.08776744	53.500000	0.455500
0.08781624	56.210000	0.477200
0.08798836	57.360000	0.490300
0.08915095	270.500000	2.860700
0.08939586	1970.670000	8.548100
0.08939749	1963.090000	8.518600
0.08940053	1963.090000	8.518600
0.08941237	1959.370000	8.512300
0.08942367	1959.370000	8.512300
0.08943530	1959.370000	8.512300
0.08944706	1960.010000	8.514000
0.08945881	1960.010000	8.514000
0.08947034	1955.080000	8.503700
0.08948212	1955.080000	8.503700
0.08949370	1955.080000	8.503700
0.08950525	1952.360000	8.498100
0.08951711	1952.360000	8.498100
0.08952846	1952.360000	8.498100
0.08954020	1952.360000	8.498100
0.08955205	1950.350000	8.493900
0.08956369	1950.350000	8.493900
0.08957525	1950.350000	8.493900
0.08963125	1958.290000	8.510800
0.08966899	1958.290000	8.510800
0.08967052	1957.440000	8.508700
0.08967932	1951.710000	8.496500
0.08969117	1951.710000	8.496500
0.08970275	1951.710000	8.496500
0.08971531	1951.710000	8.496500
0.08972734	1953.000000	8.496100
0.08973796	1953.000000	8.496100
0.08974983	1953.000000	8.496100
0.08976132	1949.780000	8.485500
0.08977307	1949.780000	8.485500
0.08978484	1960.580000	8.530100
0.08979601	1960.580000	8.530100
0.08980759	1960.580000	8.530100
0.08982030	1963.300000	8.535900
0.08983073	1963.300000	8.535900
0.08984244	1963.300000	8.535900
0.08994284	1960.870000	8.531300
0.09011928	1953.570000	8.500400
0.09013324	1953.570000	8.500400
0.09013584	1962.230000	8.518100
0.09053959	1962.230000	8.518100
0.09054110	1958.870000	8.526800
0.09055179	1958.870000	8.526800
0.09056365	1955.080000	8.519300
0.09057501	1955.080000	8.519300
0.09058644	1964.300000	8.538100
0.09059811	1964.300000	8.538100
0.09060971	1964.300000	8.538100
0.09062138	1969.810000	8.550000
0.09063297	1969.810000	8.550000
0.09064432	1969.810000	8.550000
0.09065598	1964.160000	8.519900
0.09066819	1964.160000	8.519900
0.09067911	1964.160000	8.519900
0.09069471	1964.440000	8.521800
0.09073987	1967.590000	8.530000
0.09074174	1967.590000	8.530000
0.09087183	1964.660000	8.524100
0.09087343	1950.430000	8.493800
0.09087671	1950.430000	8.493800
0.09088836	1950.430000	8.493800
0.09096971	1960.370000	8.515400
0.09104141	1965.370000	8.526000
0.09104368	1969.670000	8.535300
0.09105260	1969.670000	8.535300
0.09106362	1969.670000	8.535300
0.09113534	1967.160000	8.517300
0.09139334	1973.100000	8.556500
0.09139536	1971.030000	8.536200
0.09140017	1971.030000	8.536200
0.09141185	1971.030000	8.536200
0.09150471	1973.740000	8.542100
0.09150654	1966.090000	8.526300
0.09151720	1966.090000	8.526300
0.09160970	1961.510000	8.517500
0.09176266	1961.510000	8.517500
0.09177707	1954.720000	8.502900
0.09177890	1954.720000	8.502900
0.09233912	1954.720000	8.502900
0.09234094	1965.090000	8.524900
0.09234281	1965.090000	8.524900
0.09242368	1968.950000	8.532900
0.09242534	1965.450000	8.525800
0.09243622	1965.450000	8.525800
0.09277319	1968.880000	8.547700
0.09277501	1968.740000	8.531200
0.09278336	1968.740000	8.531200
0.09280588	1968.740000	8.531200
0.09280751	1968.740000	8.531200
0.09286729	1970.100000	8.534800
0.09286899	1970.100000	8.534800
0.09287554	1969.240000	8.533000
0.09314225	1969.240000	8.533000
0.09314426	1947.780000	8.479700
0.09316627	1950.430000	8.487000
0.09318079	1950.430000	8.487000
0.09318223	1950.430000	8.487000
0.09323566	1954.430000	8.510300
0.09323750	1963.660000	8.537200
0.09324756	1963.660000	8.537200
0.09327078	1969.950000	8.550400
0.09327259	1969.950000	8.550400
0.09352632	1969.950000	8.550400
0.09354414	1974.740000	8.545500
0.09354596	1974.740000	8.545500
0.09354914	1974.740000	8.545500
0.09362094	1972.460000	8.540500
0.09372659	1972.460000	8.540500
0.09372819	1973.810000	8.543300
0.09373492	1973.810000	8.543300
0.09382501	1968.020000	8.532200
0.09382647	1961.660000	8.515700
0.09382829	1961.660000	8.515700
0.09388118	1967.730000	8.544900
0.09388293	1968.240000	8.546900
0.09388611	1968.240000	8.546900
0.09400344	1968.240000	8.546900
0.09425804	1969.740000	8.534300
0.09426112	1972.240000	8.534300
0.09426844	1972.240000	8.534300
0.09427979	1972.240000	8.539200
0.09429294	1972.240000	8.539200
0.09433780	1977.390000	8.550200
0.09433939	1977.390000	8.550200
0.09435016	1977.390000	8.550200
0.09436105	1977.390000	8.550200
0.09437285	1978.040000	8.551600
0.09438432	1978.040000	8.551600
0.09439593	1978.040000	8.551600
0.09440748	1978.960000	8.553600
0.09441934	1978.960000	8.553600
0.09443152	1980.470000	8.555100
0.09444255	1980.470000	8.555100
0.09445412	1980.470000	8.555100
0.09446596	1980.470000	8.555100
0.09447756	1976.320000	8.530500
0.09448919	1976.320000	8.530500
0.09450100	1976.320000	8.530500
0.09451242	1981.330000	8.560000
0.09452420	1981.330000	8.560000
0.09453581	1981.330000	8.560000
0.09454793	1985.260000	8.581900
0.09456058	1985.260000	8.581900
0.09457104	1985.260000	8.581900
0.09463435	1981.110000	8.573400
0.09463634	1981.110000	8.573400
0.09464047	1981.110000	8.573400
0.09465611	1981.830000	8.575300
0.09466345	1981.830000	8.575300
0.09467510	1981.830000	8.575300
0.09468674	1978.040000	8.567200
0.09469838	1978.040000	8.567200
0.09470995	1978.040000	8.567200
0.09472189	1968.450000	8.538600
0.09473314	1968.450000	8.538600
0.09474471	1968.450000	8.538600
0.09475627	1959.370000	8.508800
0.09476773	1959.370000	8.508800
0.09477938	1959.370000	8.508800
0.09479118	107.710000	1.521300
0.09480248	107.710000	1.521300
0.09481405	107.710000	1.521300
0.09482566	44.700000	0.371000
0.09483956	44.700000	0.371000
0.09502486	44.700000	0.371000
0.09502667	50.060000	0.435900
0.09503451	50.060000	0.448200
0.09509748	50.060000	0.433700
0.09509948	50.060000	0.433700
0.09520855	50.060000	0.433700
0.09521053	50.060000	0.437100
0.09539424	49.990000	0.428100
0.09539646	49.990000	0.428100
0.09540556	49.990000	0.428100
0.09545632	50.060000	0.432700
0.09549297	50.060000	0.432700
0.09549534	50.130000	0.428100
0.09549799	50.130000	0.428100
0.09555352	50.130000	0.432500
0.09555516	50.130000	0.432500
0.09555681	50.130000	0.432500
0.09556757	50.130000	0.432500
0.09558036	50.130000	0.432500
0.09559068	50.210000	0.436100
0.09565078	50.060000	0.432300
0.09565250	50.060000	0.432300
0.09566015	50.060000	0.432300
0.09567177	50.060000	0.432300
0.09568378	50.060000	0.432300
0.09577659	50.060000	0.429500
0.09588243	50.060000	0.429500
0.09588425	49.990000	0.419900
0.09589291	49.990000	0.419900
0.09590462	49.990000	0.421900
0.09591623	49.990000	0.421900
0.09596929	50.060000	0.428900
0.09597193	50.060000	0.428900
0.09597400	50.060000	0.428900
0.09598576	50.060000	0.428900
0.09599742	50.130000	0.431400
0.09618314	50.130000	0.431400
0.09618494	50.060000	0.436600
0.09643946	50.060000	0.436600
0.09644341	50.130000	0.436800
0.09645279	50.130000	0.434200
0.09646270	50.130000	0.434200
0.09654464	50.060000	0.431800
0.09654655	50.130000	0.432200
0.09655515	50.130000	0.432200
0.09664756	50.060000	0.432500
0.09664926	50.060000	0.432500
0.09684013	50.130000	0.433400
0.09708481	50.130000	0.439600
0.09708699	50.130000	0.440800
0.09708881	50.130000	0.440800
0.09710056	50.130000	0.440800
0.09711152	50.130000	0.437700
0.09720454	50.060000	0.433700
0.09720610	50.060000	0.433700
0.09726288	50.130000	0.432300
0.09726451	50.130000	0.435400
0.09727444	50.130000	0.435400
0.09728635	50.130000	0.434600
0.09729788	50.130000	0.434600
0.09739064	50.130000	0.440800
0.09739227	50.060000	0.435300
0.09748444	50.130000	0.429700
0.09748593	50.130000	0.429700
0.09754582	50.210000	0.432300
0.09754745	50.210000	0.432300
0.09758789	50.210000	0.432300
0.09758953	79.320000	0.547200
0.09759904	72.020000	0.515500
0.09761066	72.020000	0.515500
0.09762395	72.020000	0.515500
0.09771522	55.860000	0.398000
0.09771683	55.860000	0.398000
0.09781985	29.820000	0.275000
0.09782182	29.820000	0.275000
0.09791252	28.960000	0.273400
0.09791411	28.960000	0.273400
0.09792410	28.960000	0.273400
0.09793589	28.960000	0.273400
0.09794733	28.960000	0.273400
0.09802985	28.890000	0.273000
0.09803185	29.030000	0.274000
0.09804025	29.030000	0.274000
0.09809402	54.640000	0.398900
0.09809642	54.640000	0.398900
0.09809807	54.640000	0.398900
0.09810969	54.640000	0.398900
0.09812176	47.060000	0.358600
0.09813316	47.060000	0.358600
0.09814505	47.060000	0.358600
0.09819111	43.200000	0.339000
0.09819267	43.270000	0.339500
0.09820299	43.270000	0.339500
0.09821463	43.270000	0.339500
0.09822661	36.900000	0.297100
0.09831948	15.800000	0.105100
0.09832163	15.800000	0.105100
0.09837362	15.800000	0.105100
0.09837611	15.800000	0.105100
0.09837789	15.800000	0.105100
0.09839115	15.800000	0.105100
0.09840983	15.800000	0.105100
0.09841475	15.800000	0.105100
0.09847044	15.730000	0.105100
0.09847296	15.800000	0.105400
0.09848218	15.800000	0.105400
0.09849399	15.800000	0.105400
0.09850521	15.800000	0.105100
0.09855894	15.870000	0.105400
0.09856102	15.870000	0.105400
0.09856367	15.800000	0.105200
0.09857524	15.800000	0.105200
0.09859896	15.800000	0.105200
0.09874054	15.800000	0.105000
0.09874219	15.800000	0.105100
0.09874898	15.800000	0.105100
0.09876081	15.800000	0.105100
0.09877230	15.800000	0.105100
0.09878383	15.800000	0.105000
0.09884395	15.800000	0.105000
0.09884543	15.800000	0.105000
0.09885367	15.800000	0.104400
0.09886487	15.800000	0.104400
0.09887659	15.800000	0.104500
0.09913131	15.800000	0.104500
0.09913306	15.800000	0.104200
0.09914309	15.800000	0.104200
0.09915465	15.800000	0.104200
0.09921280	15.730000	0.104000
0.09921429	15.800000	0.104300
0.09922448	15.730000	0.104500
0.09923591	15.730000	0.104500
0.09924755	15.730000	0.104500
0.09930558	15.730000	0.104500
0.09930748	15.660000	0.104100
0.09931678	15.660000	0.104100
0.09932881	15.660000	0.104100
0.09934049	15.660000	0.104300
0.09939802	15.730000	0.104400
0.09939959	15.730000	0.104100
0.09940961	15.730000	0.104100
0.09942124	15.730000	0.104100
0.09943291	15.730000	0.104100
0.09949084	15.800000	0.104500
0.09949245	15.800000	0.104500
0.09950259	15.800000	0.104500
0.09951391	15.730000	0.104400
0.09952557	15.730000	0.104400
0.09967653	15.730000	0.104400
0.09967872	15.730000	0.104000
0.09968774	15.730000	0.104000
0.09969958	15.730000	0.104000
0.09971125	15.800000	0.104200
0.09977149	15.730000	0.104400
0.09977313	15.730000	0.104400
0.09978087	15.730000	0.104400
0.09979236	15.660000	0.104300
0.09980419	15.660000	0.104300
0.09985284	15.660000	0.103900
0.09985434	15.660000	0.103900
0.09986250	15.660000	0.103900
0.09987419	15.660000	0.103900
0.09988574	15.590000	0.103900
0.10014054	15.590000	0.103900
0.10014243	15.660000	0.104000
0.10015299	15.660000	0.104000
0.10016488	15.660000	0.104000
0.10021105	15.730000	0.104600
0.10024764	15.660000	0.104300
0.10024932	15.730000	0.104500
0.10025780	15.730000	0.104500
0.10031593	15.730000	0.104200
0.10031797	15.730000	0.104200
0.10032719	15.730000	0.104200
0.10033852	15.730000	0.104200
0.10035047	15.730000	0.104600
0.10051550	15.660000	0.104600
0.10051759	15.660000	0.103700
0.10052465	15.660000	0.103700
0.10053642	15.660000	0.103700
0.10062935	15.660000	0.103500
0.10063137	15.660000	0.103500
0.10096578	15.590000	0.103600
0.10097015	15.590000	0.103300
0.10097877	15.590000	0.103300
0.10099041	15.590000	0.103300
0.10100193	15.590000	0.103300
0.10107135	15.660000	0.103300
0.10107319	15.660000	0.103300
0.10108306	15.660000	0.103300
0.10109438	15.660000	0.103300
0.10134926	15.730000	0.103500
0.10135104	15.660000	0.103500
0.10136207	15.660000	0.103500
0.10137367	15.660000	0.103500
0.10143389	15.660000	0.103200
0.10143552	15.660000	0.103200
0.10144323	15.660000	0.103200
0.10145478	15.590000	0.103100
0.10146654	15.590000	0.103100
0.10161744	15.590000	0.103100
0.10161944	15.590000	0.103000
0.10162961	15.590000	0.102800
0.10164102	15.590000	0.102800
0.10165269	15.590000	0.102800
0.10173397	15.590000	0.103200
0.10173632	15.590000	0.102900
0.10174556	15.590000	0.102900
0.10179900	15.660000	0.103000
0.10180052	15.660000	0.103000
0.10180407	15.660000	0.103200
0.10181543	15.660000	0.103200
0.10182712	15.660000	0.103200
0.10208495	15.660000	0.103200
0.10209929	15.590000	0.103500
0.10210109	15.590000	0.103500
0.10210741	15.590000	0.103500
0.10211823	15.520000	0.103100
0.10221115	15.590000	0.103200
0.10238793	15.520000	0.103000
0.10239125	15.520000	0.103200
0.10247958	15.440000	0.103100
0.10248216	15.440000	0.103100
0.10249066	15.590000	0.103600
0.10250214	15.590000	0.103600
0.10251354	15.590000	0.103600
0.10252508	15.590000	0.103200
0.10253693	15.590000	0.103200
0.10254828	15.590000	0.103200
0.10256038	15.590000	0.103200
0.10257178	15.590000	0.103200
0.10258426	15.590000	0.103200
0.10263065	15.520000	0.103300
0.10263235	15.520000	0.103300
0.10264185	15.520000	0.103200
0.10265313	15.520000	0.103200
0.10266480	15.590000	0.103400
0.10309425	15.590000	0.103100
0.10313228	15.440000	0.103300
0.10313420	15.440000	0.103200
0.10322321	15.520000	0.103200
0.10322659	15.520000	0.103200
0.10331598	15.520000	0.102800
0.10339962	15.520000	0.102800
0.10340179	15.440000	0.102700
0.10340951	15.440000	0.102700
0.10356025	15.440000	0.102700
0.10356207	15.370000	0.102300
0.10357260	15.520000	0.102600
0.10358427	15.520000	0.102600
0.10359635	15.520000	0.102600
0.10368032	15.440000	0.102500
0.10368216	15.520000	0.102700
0.10368876	15.520000	0.102700
0.10374700	15.520000	0.102200
0.10374867	15.520000	0.102500
0.10375826	15.520000	0.102500
0.10376975	15.520000	0.102500
0.10378152	15.440000	0.102200
0.10390953	15.440000	0.102400
0.10391098	15.440000	0.102300
0.10392102	15.520000	0.102700
0.10393258	15.520000	0.102700
0.10394435	15.520000	0.102700
0.10395610	15.590000	0.102500
0.10396770	15.590000	0.102500
0.10397914	15.590000	0.102500
0.10399220	15.590000	0.102500
0.10400383	15.590000	0.102500
0.10401980	15.520000	0.102400
0.10402859	15.520000	0.102400
0.10403988	15.520000	0.102400
0.10404995	15.520000	0.102400
0.10406108	15.520000	0.102400
0.10407347	15.520000	0.102400
0.10408390	15.520000	0.102400
0.10409537	15.440000	0.102300
0.10410704	15.440000	0.102300
0.10411859	27.530000	0.102300
0.10413012	27.530000	0.248700
0.10414175	27.530000	0.248700
0.10415337	27.530000	0.248700
0.10416480	15.440000	0.102400
0.10417664	15.440000	0.102400
0.10418797	15.440000	0.102400
0.10419969	28.750000	0.270800
0.10421162	28.750000	0.270800
0.10422345	28.750000	0.270800
0.10423443	28.610000	0.270000
0.10424611	28.610000	0.270000
0.10425763	28.610000	0.270000
0.10426904	28.610000	0.269400
0.10428086	28.610000	0.269400
0.10429272	28.530000	0.269000
0.10430411	28.530000	0.269000
0.10431578	28.530000	0.269000
0.10432743	28.530000	0.269000
0.10433885	28.530000	0.269200
0.10435043	28.530000	0.269200
0.10436204	28.530000	0.269200
0.10437355	15.440000	0.102500
0.10438508	15.440000	0.102500
0.10439677	15.440000	0.102500
0.10440943	15.440000	0.102800
0.10442058	15.440000	0.102800
0.10443228	15.440000	0.102800
0.10449035	15.440000	0.102500
0.10449260	15.440000	0.102500
0.10450157	15.440000	0.102500
0.10451362	15.520000	0.102900
0.10452492	15.520000	0.102900
0.10458337	15.520000	0.103000
0.10458571	15.520000	0.102700
0.10459506	15.520000	0.102700
0.10460654	15.520000	0.102800
0.10461852	15.520000	0.102800
0.10469979	15.520000	0.102700
0.10470197	15.520000	0.102500
0.10471160	15.520000	0.102500
0.10496556	15.440000	0.102500
0.10496755	15.440000	0.102700
0.10498009	15.440000	0.102700
0.10551142	15.440000	0.102500
0.10551359	15.520000	0.102200
0.10552447	15.520000	0.102200
0.10553575	15.520000	0.102200
0.10559367	15.520000	0.102200
0.10559571	15.440000	0.101800
0.10560554	15.440000	0.101800
0.10561686	15.440000	0.101800
0.10562853	15.440000	0.101800
0.10572168	15.520000	0.102100
0.10572365	15.520000	0.102100
0.10577914	15.520000	0.102100
0.10578137	15.520000	0.102000
0.10579056	15.440000	0.101900
0.10580226	15.440000	0.101900
0.10581361	15.440000	0.101900
0.10599145	15.520000	0.102200
0.10610076	15.440000	0.102000
0.10611405	15.440000	0.102300
0.10611587	15.440000	0.102300
0.10612595	15.440000	0.102300
0.10613847	15.440000	0.101700
0.10614924	15.440000	0.101700
0.10616030	15.440000	0.101700
0.10617209	15.440000	0.101700
0.10618377	15.440000	0.102100
0.10619536	15.440000	0.102100
0.10620677	15.440000	0.102100
0.10621846	15.440000	0.101900
0.10623044	15.440000	0.101900
0.10624191	15.520000	0.101900
0.10625395	15.520000	0.102000
0.10626506	15.520000	0.102000
0.10627706	15.520000	0.102000
0.10636965	15.520000	0.101900
0.10637137	15.520000	0.101900
0.10652970	15.440000	0.102000
0.10653159	15.440000	0.101700
0.10654292	15.440000	0.101700
0.10655459	15.440000	0.101700
0.10664778	15.520000	0.101900
0.10664980	15.520000	0.101900
0.10672999	15.520000	0.102000
0.10673198	15.520000	0.102000
0.10674007	15.520000	0.101900
0.10682752	15.520000	0.101900
0.10682934	15.520000	0.101900
0.10683279	15.520000	0.101900
0.10689299	15.300000	0.101400
0.10689520	15.300000	0.101400
0.10690221	15.300000	0.101500
0.10691343	15.300000	0.101500
0.10692506	15.300000	0.101500
0.10709921	15.300000	0.101200
0.10710117	15.440000	0.101800
0.10711027	15.440000	0.101900
0.10717059	15.520000	0.101900
0.10717245	15.520000	0.101900
0.10718002	15.520000	0.101900
0.10719163	15.440000	0.101800
0.10720365	15.440000	0.101800
0.10726319	15.520000	0.101800
0.10726483	15.520000	0.101800
0.10737700	15.520000	0.101800
0.10737889	15.520000	0.101900
0.10738949	15.520000	0.101800
0.10748148	15.440000	0.101600
0.10748309	15.440000	0.101600
0.10754134	15.440000	0.101300
0.10754284	15.440000	0.101300
0.10755052	15.440000	0.101300
0.10756209	15.440000	0.101400
0.10757362	15.440000	0.101400
0.10791117	15.440000	0.101600
0.10791339	4.290000	0.058700
0.10792142	4.290000	0.058700
0.10793238	4.290000	0.058700
0.10794390	4.290000	0.058500
0.10802547	4.290000	0.058500
0.10802855	4.290000	0.058100
0.10803741	4.290000	0.058100
0.10840012	4.220000	0.058100
0.10840284	4.290000	0.058100
0.10840818	4.290000	0.058100
0.10850007	4.290000	0.058500
0.10850189	4.290000	0.058000
0.10858179	4.290000	0.058300
0.10858378	4.290000	0.058200
0.10859291	4.290000	0.058200
0.10868596	4.290000	0.058200
0.10868815	4.290000	0.058200
0.10878175	4.290000	0.058600
0.10878925	4.290000	0.058600
0.10903396	4.290000	0.058600
0.10903541	4.290000	0.058200
0.10904429	4.290000	0.058200
0.10905632	4.290000	0.058400
0.10906734	4.290000	0.058400
0.10907891	4.290000	0.058400
0.10909082	4.290000	0.058400
0.10910207	4.290000	0.058400
0.10911362	4.290000	0.058400
0.10912519	4.290000	0.058200
0.10913692	4.290000	0.058200
0.10914844	4.290000	0.058200
0.10916019	4.290000	0.058200
0.10917157	4.290000	0.058700
0.10918311	4.290000	0.058700
0.10919505	4.290000	0.058700
0.10920644	4.290000	0.058700
0.10921839	4.290000	0.058700
0.10923051	4.290000	0.058200
0.10924177	4.290000	0.058200
0.10933476	4.290000	0.058200
0.10933657	4.290000	0.058600
0.10942693	4.290000	0.058300
0.10942914	4.290000	0.058300
0.10951986	4.290000	0.057900
0.10952149	4.290000	0.057900
0.10961198	4.290000	0.059800
0.10961362	4.290000	0.059800
0.10970478	4.290000	0.059000
0.10970640	4.290000	0.059000
0.10979787	4.290000	0.059500
0.10979950	4.290000	0.059500
0.10986036	4.290000	0.058000
0.10986231	4.290000	0.058000
0.10986686	4.290000	0.058000
0.10987916	4.290000	0.058000
0.11004052	4.220000	0.058500
0.11004235	4.290000	0.058800
0.11005218	4.290000	0.058800
0.11006344	4.290000	0.058400
0.11033010	4.290000	0.058400
0.11034402	4.290000	0.058800
0.11034559	4.290000	0.059100
0.11035314	4.290000	0.059100
0.11041711	4.290000	0.059200
0.11041898	4.290000	0.059200
0.11042225	4.290000	0.059200
0.11043424	4.290000	0.059200
0.11068889	4.220000	0.059300
0.11069035	4.290000	0.059100
0.11080493	4.290000	0.059100
0.11080671	4.290000	0.059400
0.11081634	4.290000	0.059400
0.11090865	4.290000	0.058700
0.11091049	4.290000	0.058700
0.11100198	4.290000	0.058800
0.11100368	4.290000	0.058700
0.11105692	4.290000	0.058800
0.11105874	4.290000	0.058800
0.11106056	4.290000	0.058800
0.11107090	4.290000	0.058700
0.11108281	4.290000	0.058700
0.11109411	4.290000	0.058700
0.11115487	4.290000	0.058700
0.11115686	4.290000	0.058700
0.11116538	4.290000	0.058700
0.11117589	4.290000	0.058400
0.11118720	4.290000	0.058400
0.11128370	4.290000	0.058400
0.11128534	4.290000	0.058400
0.11137334	4.290000	0.059000
0.11137539	4.290000	0.059000
0.11162779	4.290000	0.059000
0.11163002	4.220000	0.058700
0.11163941	4.220000	0.058700
0.11165101	4.220000	0.058700
0.11174390	4.290000	0.057700
0.11174591	4.290000	0.057700
0.11179662	4.290000	0.058000
0.11179863	4.290000	0.058000
0.11180170	4.290000	0.058400
0.11181316	4.290000	0.058400
0.11182476	4.290000	0.058400
0.11183633	4.290000	0.058200
0.11192931	4.290000	0.058400
0.11193095	4.290000	0.058400
0.11198225	4.290000	0.058500
0.11198398	4.290000	0.058500
0.11198678	4.290000	0.058500
0.11199854	4.290000	0.058500
0.11200999	4.290000	0.058600
0.11202188	4.290000	0.058600
0.11211449	4.290000	0.061600
0.11216729	4.290000	0.062000
0.11216902	4.290000	0.062000
0.11217193	4.290000	0.062000
0.11218350	4.290000	0.063200
0.11229912	4.290000	0.063200
0.11230096	4.290000	0.058400
0.11241532	4.290000	0.058800
0.11266045	4.290000	0.058800
0.11277876	4.290000	0.058600
0.11279314	4.290000	0.058900
0.11282953	4.290000	0.058900
0.11283117	4.290000	0.058900
0.11283271	4.290000	0.058900
0.11285509	4.290000	0.058900
0.11285655	4.290000	0.058900
0.11290118	4.290000	0.058900
0.11290296	4.290000	0.058700
0.11291293	4.290000	0.058900
0.11292456	4.290000	0.058900
0.11293617	4.290000	0.058900
0.11294802	4.220000	0.058900
0.11302936	4.220000	0.058900
0.11303113	4.290000	0.059100
0.11304038	4.290000	0.059100
0.11309972	4.290000	0.059300
0.11313718	4.290000	0.059200
0.11318543	4.290000	0.058900
0.11333692	4.290000	0.058900
0.11349189	4.290000	0.059300
0.11377185	4.290000	0.059300
0.11377365	4.290000	0.058300
0.11378193	4.290000	0.058300
0.11381690	4.290000	0.058300
0.11385333	4.290000	0.058300
0.11385516	4.290000	0.058300
0.11386270	4.290000	0.058300
0.11387455	4.290000	0.058300
0.11393413	4.290000	0.058400
0.11393568	4.290000	0.058400
0.11394390	4.290000	0.059200
0.11395503	4.290000	0.059200
0.11396684	4.290000	0.059200
0.11402046	4.290000	0.058800
0.11402227	4.290000	0.058800
0.11402478	4.290000	0.058800
0.11403672	4.290000	0.058800
0.11404847	4.290000	0.058800
0.11405979	4.290000	0.058900
0.11407244	4.290000	0.058900
0.11411774	4.290000	0.058400
0.11411938	4.290000	0.058400
0.11423353	4.290000	0.058400
0.11423578	4.290000	0.059500
0.11424513	4.290000	0.059500
0.11429632	4.290000	0.059400
0.11429797	4.290000	0.059400
0.11430365	4.290000	0.059400
0.11431473	4.290000	0.059400
0.11432640	4.290000	0.059400
0.11433787	4.290000	0.058600
0.11449770	4.290000	0.058300
0.11449933	4.290000	0.058400
0.11451385	4.290000	0.058400
0.11451674	4.290000	0.057800
0.11459486	4.290000	0.058200
0.11459671	4.290000	0.058600
0.11460605	4.290000	0.058700
0.11461615	4.290000	0.058700
0.11467366	4.290000	0.058700
0.11467547	4.290000	0.058100
0.11468552	4.290000	0.057800
0.11469699	4.290000	0.057800
0.11470850	4.290000	0.057800
0.11476872	4.290000	0.058500
0.11477060	4.290000	0.058500
0.11477943	4.290000	0.058800
0.11478987	4.290000	0.058800
0.11504446	4.290000	0.058800
0.11504865	4.290000	0.059500
0.11505659	4.290000	0.059500
0.11513774	4.290000	0.058800
0.11513948	4.290000	0.058400
0.11514858	4.290000	0.058400
0.11516006	4.290000	0.058400
0.11522990	4.290000	0.058600
0.11523172	4.290000	0.058400
0.11524103	4.290000	0.058700
0.11525270	4.290000	0.058700
0.11526455	4.290000	0.058500
0.11532347	4.290000	0.058900
0.11532584	4.290000	0.058900
0.11533396	4.290000	0.058900
0.11534553	4.290000	0.058600
0.11535690	4.290000	0.058600
0.11541513	4.290000	0.058600
0.11541676	4.290000	0.058600
0.11542656	4.290000	0.058600
0.11543808	4.290000	0.058700
0.11545076	4.290000	0.058700
0.11546128	4.290000	0.058700
0.11547291	4.290000	0.058700
0.11548427	4.290000	0.059000
0.11554358	4.290000	0.059000
0.11559425	4.290000	0.059200
0.11559697	4.290000	0.058600
0.11563756	4.290000	0.058600
0.11598801	4.290000	0.060200
0.11599010	4.290000	0.058900
0.11600556	4.290000	0.058900
0.11608873	4.290000	0.058500
0.11609097	4.290000	0.058500
0.11621387	4.290000	0.058700
0.11621602	4.290000	0.058500
0.11651794	4.290000	0.058500
0.11651975	4.290000	0.058700
0.11652653	4.290000	0.058700
0.11654979	4.290000	0.058700
0.11655148	4.290000	0.058700
0.11681611	4.290000	0.059300
0.11692247	4.290000	0.060700
0.11716719	4.290000	0.061400
0.11720368	4.290000	0.058500
0.11720574	4.290000	0.058300
0.11720981	4.290000	0.058300
0.11725979	4.290000	0.058200
0.11726163	4.290000	0.058200
0.11726743	4.290000	0.058200
0.11727913	4.290000	0.058100
0.11730245	4.290000	0.058100
0.11730464	4.290000	0.058100
0.11755744	4.290000	0.058100
0.11757132	4.290000	0.058500
0.11814071	4.290000	0.058500
0.11818896	4.290000	0.059000
0.11819075	4.290000	0.059000
0.11819458	4.290000	0.059000
0.11820580	4.290000	0.059000
0.11821750	4.290000	0.059000
0.11822920	4.290000	0.059500
0.11828940	4.290000	0.059500
0.11829176	4.140000	0.057800
0.11840302	4.140000	0.057800
0.11840501	4.140000	0.056800
0.11893572	4.140000	0.056800
0.11904450	4.140000	0.057400
0.11904725	4.140000	0.057100
0.11905229	4.140000	0.057100
0.11913852	4.140000	0.057400
0.11914025	4.140000	0.057400
0.11914443	4.140000	0.057400
0.11939914	4.140000	0.057400
0.11940649	4.140000	0.057600
0.11941179	4.140000	0.057600
0.11945818	4.140000	0.057600
0.11946039	4.140000	0.057700
0.11950601	4.140000	0.057300
0.11952137	4.140000	0.057300
0.11952336	4.140000	0.057300
0.11956396	4.140000	0.057300
0.11960027	4.070000	0.057100
0.11960167	4.140000	0.057400
0.11960851	4.140000	0.057500
0.11963140	4.140000	0.057500
0.11963332	4.140000	0.057500
0.11964304	4.140000	0.057500
0.11966634	4.140000	0.057600
0.11966785	4.140000	0.057600
0.11967752	4.140000	0.057600
0.11968938	4.140000	0.057400
0.11970083	4.140000	0.057400
0.11971228	4.140000	0.057700
0.11972414	4.140000	0.057700
0.11977035	4.140000	0.057700
0.11977218	4.070000	0.057100
0.11978215	4.140000	0.057100
0.11979355	4.140000	0.057100
0.11985198	4.140000	0.057100
0.11988887	4.140000	0.057400
0.11989086	4.140000	0.057400
0.11989762	4.140000	0.057400
0.11990931	4.140000	0.057400
0.11992125	4.140000	0.057500
0.11996743	4.140000	0.057500
0.12011984	4.140000	0.057500
0.12012170	4.140000	0.056700
0.12012969	4.140000	0.057000
0.12015291	4.140000	0.057000
0.12020146	4.140000	0.057000
0.12020328	4.140000	0.057200
0.12022212	4.140000	0.057300
0.12046722	4.140000	0.057300
0.12046938	4.140000	0.056800
0.12051154	4.140000	0.057100
0.12051299	4.140000	0.057100
0.12052287	4.140000	0.057400
0.12053506	4.140000	0.057400
0.12058191	4.140000	0.057100
0.12059589	4.140000	0.056900
0.12059770	4.140000	0.056900
0.12060513	4.140000	0.056900
0.12061580	4.140000	0.057100
0.12064362	4.140000	0.057100
0.12064659	4.140000	0.057100
0.12065406	4.140000	0.057500
0.12070961	4.140000	0.057500
0.12071138	4.140000	0.057700
0.12072012	4.140000	0.057700
0.12073170	4.140000	0.057700
0.12077795	4.140000	0.057700
0.12077959	4.140000	0.057900
0.12078988	4.140000	0.057800
0.12084722	4.140000	0.058000
0.12084895	4.140000	0.058000
0.12085903	4.140000	0.058000
0.12087065	4.140000	0.058200
0.12088201	4.140000	0.058200
0.12091683	4.140000	0.058200
0.12095308	4.140000	0.058200
0.12095458	4.140000	0.057100
0.12097490	4.140000	0.057000
0.12097670	4.140000	0.057000
0.12098593	4.140000	0.057000
0.12099755	4.140000	0.057000
0.12104471	4.140000	0.057000
0.12116435	4.140000	0.057400
0.12116637	4.140000	0.057500
0.12117145	4.140000	0.057500
0.12118421	4.140000	0.057400
0.12119470	4.140000	0.057400
0.12124104	4.140000	0.057400
0.12124275	4.140000	0.057400
0.12125457	4.140000	0.057400
0.12126387	4.140000	0.057400
0.12127561	4.140000	0.057300
0.12128706	4.140000	0.057300
0.12129867	4.140000	0.057300
0.12135645	4.140000	0.057300
0.12135791	4.140000	0.057300
0.12140294	4.140000	0.057300
0.12273997	4.140000	0.057700
0.12275544	4.140000	0.057600
0.12275725	4.140000	0.057600
0.12284228	4.140000	0.058900
0.12292703	4.140000	0.058900
0.12294054	4.140000	0.058400
0.12297726	4.140000	0.058400
0.12297860	4.140000	0.061800
0.12298943	4.140000	0.057600
0.12300104	4.140000	0.057600
0.12301253	4.140000	0.057600
0.12302419	4.140000	0.057600
0.12303587	4.140000	0.057600
0.12304733	4.140000	0.058500
0.12305878	4.140000	0.058500
0.12307035	4.140000	0.058500
0.12308201	4.140000	0.057700
0.12309360	4.140000	0.057700
0.12310516	4.140000	0.057700
0.12311694	4.140000	0.057700
0.12312834	4.070000	0.057800
0.12314002	4.070000	0.057800
0.12315174	4.070000	0.057800
0.12316368	4.140000	0.057600
0.12317498	4.140000	0.057600
0.12318654	4.140000	0.056700
0.12319801	4.140000	0.056700
0.12320970	4.140000	0.056700
0.12322154	4.140000	0.056600
0.12323272	4.140000	0.056600
0.12324437	4.140000	0.056600
0.12325603	4.140000	0.057500
0.12326757	4.140000	0.057500
0.12327924	4.140000	0.057500
0.12329075	4.140000	0.057500
0.12330236	4.140000	0.057600
0.12331427	4.140000	0.057600
0.12332549	4.140000	0.057600
0.12333698	4.140000	0.057600
0.12334853	4.140000	0.057600
0.12336015	4.140000	0.057600
0.12337170	4.140000	0.057600
0.12338344	4.140000	0.057600
0.12339479	4.140000	0.057400
0.12340647	4.140000	0.057400
0.12341795	4.140000	0.057400
0.12342968	4.140000	0.057600
0.12344110	4.140000	0.057600
0.12345286	4.140000	0.057600
0.12346498	4.140000	0.057600
0.12347581	4.140000	0.057400
0.12348740	4.140000	0.057400
0.12349902	4.140000	0.057600
0.12351066	4.140000	0.057600
0.12352218	4.140000	0.057600
0.12353372	4.140000	0.057600
0.12354545	4.140000	0.057600
0.12355685	4.140000	0.057600
0.12356848	4.140000	0.057000
0.12358008	4.140000	0.057000
0.12359163	4.140000	0.057000
0.12360310	4.140000	0.057200
0.12361484	4.140000	0.057200
0.12362637	4.140000	0.057200
0.12363787	4.140000	0.057200
0.12364944	4.140000	0.056600
0.12366125	4.140000	0.056600
0.12367260	4.140000	0.057000
0.12368424	4.140000	0.057000
0.12369604	4.140000	0.057000
0.12370738	4.140000	0.056700
0.12371902	4.140000	0.056700
0.12373064	4.140000	0.056700
0.12374213	4.140000	0.057400
0.12375362	4.140000	0.057400
0.12376516	4.140000	0.057400
0.12377693	4.140000	0.057400
0.12378836	4.140000	0.057300
0.12380001	4.140000	0.057300
0.12381160	4.140000	0.059400
0.12382316	4.140000	0.059400
0.12383469	4.140000	0.059400
0.12384690	4.140000	0.059100
0.12385804	4.140000	0.059100
0.12386941	4.140000	0.059100
0.12388091	4.140000	0.059400
0.12389255	4.140000	0.059400
0.12390416	4.140000	0.059400
0.12391568	4.140000	0.059600
0.12392745	4.140000	0.059600
0.12393887	4.140000	0.059600
0.12395052	4.140000	0.059600
0.12396193	4.140000	0.059900
0.12397350	4.140000	0.059900
0.12398529	4.140000	0.059500
0.12399684	4.140000	0.059500
0.12400860	4.140000	0.059500
0.12401980	4.140000	0.059800
0.12403138	4.140000	0.059800
0.12404304	4.140000	0.059800
0.12405459	4.140000	0.056400
0.12406618	4.140000	0.056400
0.12407765	4.140000	0.056400
0.12408927	4.140000	0.056700
0.12410080	4.140000	0.056700
0.12411247	4.140000	0.056700
0.12412409	4.140000	0.056700
0.12413571	4.140000	0.056700
0.12414713	4.140000	0.056700
0.12415936	4.140000	0.057400
0.12417031	4.140000	0.057400
0.12418179	4.140000	0.057400
0.12419353	4.140000	0.056900
0.12420499	4.140000	0.056900
0.12421662	4.140000	0.056900
0.12422823	4.140000	0.056800
0.12423993	4.140000	0.056800
0.12425135	4.140000	0.056800
0.12426304	4.140000	0.056800
0.12427597	4.140000	0.056800
0.12428623	4.140000	0.056800
0.12429777	4.140000	0.056800
0.12430928	4.140000	0.057200
0.12432091	4.140000	0.057200
0.12433249	4.140000	0.056900
0.12434403	4.140000	0.056900
0.12435569	4.140000	0.056900
0.12436731	4.140000	0.056900
0.12437883	4.140000	0.056900
0.12439042	4.140000	0.056900
0.12440204	4.140000	0.056800
0.12441392	4.140000	0.056800
0.12442502	4.140000	0.056800
0.12443671	4.140000	0.056800
0.12444824	4.140000	0.056700
0.12446007	4.140000	0.056700
0.12447149	4.140000	0.056800
0.12448307	4.140000	0.056800
0.12449462	4.140000	0.056800
0.12450623	3.430000	0.035100
0.12451770	3.430000	0.035100
0.12452931	3.430000	0.035100
0.12454100	3.430000	0.034900
0.12455274	3.430000	0.034900
0.12456420	3.430000	0.034900
0.12457575	3.430000	0.035100
0.12458735	3.430000	0.035100
0.12459888	3.430000	0.035100
0.12461046	3.430000	0.035100
0.12462188	3.430000	0.035000
0.12463359	3.430000	0.035000
0.12464530	3.430000	0.034900
0.12465694	3.430000	0.034900
0.12466840	3.430000	0.034900
0.12467988	3.430000	0.034900
0.12469156	3.430000	0.034900
0.12470314	3.430000	0.034900
0.12471508	3.430000	0.035100
0.12472624	3.430000	0.035100
0.12473780	3.430000	0.035100
0.12475002	3.430000	0.034900
0.12476106	3.430000	0.034900
0.12477242	3.430000	0.034900
0.12478420	3.430000	0.034900
0.12479569	3.430000	0.035000
0.12480753	3.430000	0.035000
0.12482020	3.430000	0.035100
0.12483160	3.430000	0.035100
0.12484218	3.430000	0.035100
0.12485495	3.430000	0.035100
0.12486527	3.430000	0.035100
0.12487743	3.430000	0.035100
0.12488866	3.430000	0.035100
0.12490065	3.430000	0.035100
0.12491186	3.430000	0.035100
0.12492434	3.430000	0.035100
0.12493471	3.430000	0.035100
0.12494625	3.430000	0.035100
0.12495796	3.430000	0.035100
0.12496926	3.430000	0.035100
0.12498096	3.430000	0.035100
0.12499259	3.430000	0.035000
0.12500414	3.430000	0.035000
0.12501578	3.430000	0.035000
0.12502735	3.430000	0.035100
0.12503888	3.430000	0.035100
0.12505039	3.430000	0.035100
0.12506219	3.430000	0.035000
0.12507384	3.430000	0.035000
0.12508522	3.430000	0.035000
0.12509681	3.430000	0.035000
0.12510851	3.430000	0.035100
0.12511980	3.430000	0.035100
0.12513157	3.430000	0.035100
0.12514311	3.430000	0.035100
0.12515487	3.430000	0.035100
0.12516617	3.430000	0.035100
0.12517781	3.430000	0.035100
0.12518935	3.430000	0.035100
0.12520105	2.860000	0.033100
0.12521242	2.860000	0.033100
0.12522404	2.860000	0.033100
0.12523574	0.140000	0.023100
0.12524723	0.140000	0.023100
0.12525891	0.140000	0.023100
0.12527043	0.140000	0.023100
0.12528185	0.140000	0.023100
0.12529350	0.140000	0.023100
0.12530515	0.140000	0.022900
0.12531682	0.140000	0.022900
0.12532856	0.140000	0.022900
0.12534027	0.140000	0.023000
0.12535197	0.140000	0.023000
0.12536350	0.140000	0.023000
0.12537517	0.140000	0.023000
0.12538682	0.140000	0.023000
0.12539869	0.140000	0.023000
0.12540999	0.140000	0.023200
0.12542160	0.140000	0.023200
0.12543316	0.140000	0.023200
0.12544466	0.140000	0.023200
0.12545630	0.070000	0.023100
0.12546791	0.070000	0.023100
0.12547972	0.140000	0.022900
0.12549138	0.140000	0.022900
0.12550313	0.140000	0.022900
0.12551473	0.140000	0.023000
0.12552644	0.140000	0.023000
0.12553775	0.140000	0.023000
0.12554943	0.140000	0.023000
0.12556123	0.140000	0.023000
0.12557292	0.140000	0.023000
0.12558464	0.140000	0.023000
0.12559613	0.140000	0.023000
0.12560709	0.140000	0.023000
0.12562124	0.140000	0.022900
0.12563057	0.140000	0.022900
0.12564218	0.140000	0.022900
0.12565394	0.140000	0.023100
0.12566619	0.140000	0.023100
0.12567696	0.140000	0.023100
0.12568853	0.140000	0.022900
0.12570207	0.140000	0.022900
0.12571153	0.140000	0.022900
0.12572369	0.140000	0.023000
0.12573491	0.140000	0.023000
0.12574628	0.140000	0.023000
0.12575777	0.140000	0.023100
0.12576939	0.140000	0.023100
0.12578111	0.140000	0.023100
0.12579311	0.140000	0.023000
0.12580428	0.140000	0.023000
0.12581565	0.140000	0.023000
0.12582712	0.140000	0.023000
0.12583874	0.140000	0.023000
0.12585054	0.140000	0.023000
0.12586203	0.140000	0.023000
0.12587382	0.140000	0.023000
0.12588529	0.140000	0.023000
0.12589785	0.140000	0.023200
0.12590838	0.140000	0.023200
0.12592003	0.140000	0.023200
0.12593154	0.140000	0.023200
0.12594315	0.140000	0.023100
0.12595470	0.140000	0.023100
0.12596677	0.140000	0.023100
0.12597793	0.140000	0.023100
0.12598946	0.140000	0.023100
0.12600341	0.140000	0.022900
0.12601253	0.140000	0.022900
0.12602407	0.140000	0.022900
0.12603572	0.140000	0.022900
0.12604742	0.140000	0.022900
0.12605883	0.140000	0.022900
0.12607050	0.140000	0.022900
0.12608209	0.140000	0.022900
0.12609365	0.140000	0.022900
0.12610517	0.140000	0.023000
0.12611667	0.140000	0.023000
0.12612838	0.140000	0.023000
0.12614023	0.140000	0.023000
0.12615155	0.140000	0.023000
0.12616302	0.140000	0.023000
0.12617458	0.140000	0.023000
0.12618627	0.140000	0.023000
0.12619781	0.140000	0.023000
0.12620935	0.140000	0.022900
0.12622127	0.140000	0.022900
0.12623237	0.140000	0.022900
0.12624420	0.140000	0.023100
0.12625587	0.140000	0.023100
0.12626725	0.140000	0.023100
0.12627914	0.140000	0.023000
0.12629093	0.140000	0.023000
0.12630189	0.140000	0.023000
0.12631361	0.140000	0.023000
0.12632586	0.140000	0.023000
0.12633668	0.140000	0.023000
0.12634911	0.140000	0.023200
0.12636003	0.140000	0.023200
0.12637228	0.140000	0.023200
0.12638318	0.140000	0.023100
0.12639505	0.140000	0.023100
0.12640652	0.140000	0.023100
0.12641794	0.140000	0.022900
0.12642980	0.140000	0.022900
0.12644146	0.140000	0.022900
0.12645286	0.140000	0.023000
0.12646479	0.140000	0.023000
0.12647613	0.140000	0.023000
0.12648769	0.140000	0.023000
0.12649944	0.140000	0.023000
0.12651081	0.140000	0.023000
0.12652266	0.140000	0.023000
0.12653436	0.140000	0.023000
0.12654573	0.140000	0.023000
0.12655733	0.140000	0.023100
0.12656902	0.140000	0.023100
0.12658051	0.140000	0.023100
0.12659219	0.140000	0.023000
0.12660369	0.140000	0.023000
0.12661539	0.140000	0.023000
0.12662694	0.140000	0.022900
0.12663844	0.140000	0.022900
0.12665009	0.140000	0.022900
0.12666231	0.140000	0.023000
0.12667315	0.140000	0.023000
0.12668571	0.140000	0.023000
0.12669698	0.140000	0.023000
0.12670822	0.140000	0.023000
0.12671973	0.140000	0.023000
0.12673113	0.140000	0.022900
0.12674271	0.140000	0.022900
0.12675470	0.140000	0.023000
0.12676743	0.140000	0.023000
0.12677735	0.140000	0.023000
0.12678883	0.140000	0.023000
0.12680053	0.140000	0.023100
0.12681222	0.140000	0.023100
0.12682399	0.140000	0.023100
0.12683566	0.140000	0.023000
0.12684707	0.140000	0.023000
