#Measurement data
#2022-05-22 10:04:26

#Time (days)	Power (W)	Current (A)
0.00000163	0.070000	0.036000
0.00001477	0.070000	0.036000
0.00002617	0.070000	0.036000
0.00003769	0.070000	0.036000
0.00004954	0.070000	0.036000
0.00006152	0.070000	0.035900
0.00007286	0.070000	0.035900
0.00008453	0.070000	0.035800
0.00009605	0.070000	0.035800
0.00010758	0.070000	0.035800
0.00011920	0.070000	0.036000
0.00013087	0.070000	0.036000
0.00014231	0.070000	0.036000
0.00015395	0.070000	0.036000
0.00016545	0.070000	0.036000
0.00017709	0.070000	0.036000
0.00018851	0.070000	0.036000
0.00020034	0.070000	0.036000
0.00021233	0.070000	0.036000
0.00022409	0.070000	0.036000
0.00023561	0.070000	0.036000
0.00024742	0.070000	0.036000
0.00025903	0.070000	0.035900
0.00027084	0.070000	0.035900
0.00028253	0.070000	0.035900
0.00029388	0.070000	0.036100
0.00030544	0.070000	0.036100
0.00031699	0.070000	0.036100
0.00032884	0.070000	0.036000
0.00034023	0.070000	0.036000
0.00035194	0.070000	0.036000
0.00036406	0.070000	0.036000
0.00037561	0.070000	0.036000
0.00038711	0.070000	0.036000
0.00039887	0.070000	0.036000
0.00041069	0.070000	0.036000
0.00042270	0.070000	0.036000
0.00043378	0.070000	0.036100
0.00044542	0.070000	0.036100
0.00045708	0.070000	0.036100
0.00046848	0.070000	0.035800
0.00048034	0.070000	0.035800
0.00049200	0.070000	0.035800
0.00050384	0.070000	0.036000
0.00051543	0.070000	0.036000
0.00052700	0.070000	0.036000
0.00053852	0.140000	0.036000
0.00055053	0.140000	0.036000
0.00056189	0.140000	0.036000
0.00057344	0.070000	0.036100
0.00058498	0.070000	0.036100
0.00059664	0.070000	0.036100
0.00060819	0.070000	0.036200
0.00061973	0.070000	0.036200
0.00063150	0.070000	0.036200
0.00064295	0.070000	0.036000
0.00065443	0.070000	0.036000
0.00066604	0.070000	0.036000
0.00067911	0.070000	0.036000
0.00068907	0.070000	0.036000
0.00070091	0.070000	0.036000
0.00071253	0.070000	0.036100
0.00072403	0.070000	0.036100
0.00073552	0.070000	0.036100
0.00074704	0.070000	0.036000
0.00075889	0.070000	0.036000
0.00077015	0.070000	0.036000
0.00078179	0.070000	0.036100
0.00079336	0.070000	0.036100
0.00080507	0.070000	0.036100
0.00081671	0.070000	0.036100
0.00082814	0.070000	0.036100
0.00083969	0.070000	0.036100
0.00085147	0.070000	0.036200
0.00086293	0.070000	0.036200
0.00087469	0.070000	0.036200
0.00088623	0.070000	0.036200
0.00089764	0.070000	0.036100
0.00090922	0.070000	0.036100
0.00092093	0.070000	0.036100
0.00093277	0.070000	0.036100
0.00094416	0.070000	0.036100
0.00095601	0.070000	0.036000
0.00096784	0.070000	0.036000
0.00097931	0.070000	0.036000
0.00099073	0.070000	0.036100
0.00100218	0.070000	0.036100
0.00101404	0.070000	0.036100
0.00102564	0.070000	0.036200
0.00103705	0.070000	0.036200
0.00104855	0.070000	0.036200
0.00106019	0.070000	0.036200
0.00107193	0.070000	0.036300
0.00108332	0.070000	0.036300
0.00109476	0.140000	0.036200
0.00110654	0.140000	0.036200
0.00111821	0.140000	0.036200
0.00112990	0.070000	0.036000
0.00114108	0.070000	0.036000
0.00115264	0.070000	0.036000
0.00116433	0.070000	0.036100
0.00117583	0.070000	0.036100
0.00118749	0.070000	0.036100
0.00119906	0.070000	0.036200
0.00121064	0.070000	0.036200
0.00122225	0.070000	0.036200
0.00123370	0.070000	0.036100
0.00124509	0.070000	0.036100
0.00125706	0.070000	0.036100
0.00126837	0.070000	0.036100
0.00128010	0.070000	0.036100
0.00129153	0.070000	0.036100
0.00130353	0.070000	0.036000
0.00131492	0.070000	0.036000
0.00132650	0.070000	0.036000
0.00133785	0.070000	0.036100
0.00134951	0.070000	0.036100
0.00136098	0.070000	0.036100
0.00137286	0.070000	0.036100
0.00138464	0.070000	0.036100
0.00139611	0.070000	0.036100
0.00140774	0.070000	0.036100
0.00141968	0.070000	0.036100
0.00143125	0.070000	0.036100
0.00144291	0.070000	0.036100
0.00145456	0.070000	0.036100
0.00146586	0.070000	0.036100
0.00147774	0.070000	0.036200
0.00148931	0.070000	0.036200
0.00150111	0.070000	0.036200
0.00151271	0.070000	0.036200
0.00152442	0.070000	0.036200
0.00153601	0.070000	0.036200
0.00154859	0.070000	0.036300
0.00155981	0.070000	0.036300
0.00157103	0.070000	0.036200
0.00158272	0.070000	0.036200
0.00159461	0.070000	0.036200
0.00160603	0.070000	0.036200
0.00161796	0.070000	0.036300
0.00162933	0.070000	0.036300
0.00164103	0.070000	0.036300
0.00165265	0.070000	0.036300
0.00166420	0.070000	0.036300
0.00167567	0.070000	0.036300
0.00168714	0.070000	0.036300
0.00169907	0.070000	0.036300
0.00171063	0.070000	0.036300
0.00172241	0.070000	0.036200
0.00173369	0.070000	0.036200
0.00174530	0.070000	0.036200
0.00175690	0.070000	0.036200
0.00176866	0.070000	0.036200
0.00178044	0.070000	0.036200
0.00179171	0.070000	0.036200
0.00180341	0.070000	0.036200
0.00181498	0.070000	0.036200
0.00182642	0.070000	0.036200
0.00183785	0.070000	0.036200
0.00184961	0.070000	0.036200
0.00186084	0.070000	0.036200
0.00187313	0.070000	0.036200
0.00188471	0.070000	0.036300
0.00189611	0.070000	0.036300
0.00190782	0.070000	0.036300
0.00191929	0.070000	0.036300
0.00193119	0.070000	0.036400
0.00194295	0.070000	0.036400
0.00195470	0.070000	0.036400
0.00196931	0.070000	0.036200
0.00197765	0.070000	0.036200
0.00198918	0.070000	0.036200
0.00200095	0.070000	0.036300
0.00201255	0.070000	0.036300
0.00202392	0.070000	0.036300
0.00203531	0.070000	0.036200
0.00204708	0.070000	0.036200
0.00205860	0.070000	0.036200
0.00206991	0.070000	0.036200
0.00208170	0.070000	0.036200
0.00209332	0.070000	0.036200
0.00210481	0.070000	0.036100
0.00211633	0.070000	0.036100
0.00212775	0.070000	0.036100
0.00213939	0.070000	0.036100
0.00215117	0.070000	0.036100
0.00216287	0.070000	0.036100
0.00217481	0.070000	0.036100
0.00218627	0.070000	0.036100
0.00219770	0.070000	0.036100
0.00220981	0.070000	0.036000
0.00222127	0.070000	0.036000
0.00223294	0.070000	0.036100
0.00224443	0.070000	0.036100
0.00225596	0.070000	0.036100
0.00226764	0.070000	0.036100
0.00227918	0.850000	0.054300
0.00229093	0.850000	0.054300
0.00230257	0.850000	0.054300
0.00231410	1.710000	0.039300
0.00232550	1.710000	0.039300
0.00233703	1.710000	0.039300
0.00234912	1.570000	0.038900
0.00236037	1.570000	0.038900
0.00237172	1.570000	0.038900
0.00238351	1.570000	0.038900
0.00239498	1.570000	0.038900
0.00240656	8.940000	0.056000
0.00241802	8.940000	0.056000
0.00242965	8.940000	0.056000
0.00244120	8.940000	0.056000
0.00245285	61.290000	1.287200
0.00246444	61.290000	1.287200
0.00247600	61.290000	1.287200
0.00248747	5.790000	0.047900
0.00249913	5.790000	0.047900
0.00251068	5.790000	0.047900
0.00252220	63.150000	1.381300
0.00253384	63.150000	1.381300
0.00254529	33.540000	0.771800
0.00255735	33.540000	0.771800
0.00256852	33.540000	0.771800
0.00258009	29.680000	0.880000
0.00259160	29.680000	0.880000
0.00260334	29.680000	0.880000
0.00261528	29.680000	0.880000
0.00262650	41.910000	0.861200
0.00263811	41.910000	0.861200
0.00264957	41.910000	0.861200
0.00266106	5.000000	0.046200
0.00267301	5.000000	0.046200
0.00268447	5.000000	0.046200
0.00269579	14.870000	0.094600
0.00270736	14.870000	0.094600
0.00271899	14.800000	0.094600
0.00273056	14.800000	0.094600
0.00274227	14.800000	0.094600
0.00275359	14.800000	0.094600
0.00276543	14.090000	0.093500
0.00277697	14.090000	0.093500
0.00278843	14.090000	0.093500
0.00280002	5.500000	0.088800
0.00281154	5.500000	0.088800
0.00282314	5.500000	0.088800
0.00283497	45.630000	0.950600
0.00284742	45.630000	0.950600
0.00285825	45.630000	0.950600
0.00287045	54.350000	1.035800
0.00288104	54.350000	1.035800
0.00289272	52.570000	0.995600
0.00290409	52.570000	0.995600
0.00291582	52.570000	0.995600
0.00292713	52.570000	0.995600
0.00293900	56.570000	1.077200
0.00295094	56.570000	1.077200
0.00296208	56.570000	1.077200
0.00297369	53.850000	1.117200
0.00298522	53.850000	1.117200
0.00299655	53.850000	1.117200
0.00300833	50.130000	1.055300
0.00301997	50.130000	1.055300
0.00303179	60.220000	1.055300
0.00304316	60.220000	1.137700
0.00305468	60.220000	1.137700
0.00306618	63.010000	1.191500
0.00307774	63.010000	1.191500
0.00308959	63.010000	1.191500
0.00310111	63.010000	1.191500
0.00311256	63.010000	1.191500
0.00312407	63.010000	1.191500
0.00313567	63.010000	1.191500
0.00314723	65.080000	1.222300
0.00315925	65.080000	1.222300
0.00317043	65.080000	1.222300
0.00318190	67.090000	1.259900
0.00319377	67.090000	1.259900
0.00320568	69.090000	1.285900
0.00321698	69.090000	1.285900
0.00322884	69.090000	1.285900
0.00324021	73.810000	1.359400
0.00325179	73.810000	1.359400
0.00326333	73.810000	1.359400
0.00327503	73.810000	1.359400
0.00328694	76.460000	1.395900
0.00329836	76.460000	1.395900
0.00330993	76.460000	1.395900
0.00332132	78.100000	1.437000
0.00333271	78.100000	1.437000
0.00334462	78.100000	1.437000
0.00335602	88.190000	1.588400
0.00336779	88.190000	1.588400
0.00337933	88.830000	1.601900
0.00339089	88.830000	1.601900
0.00340233	88.830000	1.601900
0.00341403	95.770000	1.706700
0.00342561	95.770000	1.706700
0.00343698	95.770000	1.706700
0.00344889	95.770000	1.706700
0.00346039	103.490000	1.813100
0.00347207	103.490000	1.813100
0.00348369	103.490000	1.813100
0.00349663	107.780000	1.903600
0.00350690	107.780000	1.903600
0.00351843	107.780000	1.903600
0.00353024	114.080000	2.008700
0.00354190	114.080000	2.008700
0.00355350	117.870000	2.054300
0.00356505	117.870000	2.054300
0.00357663	117.870000	2.054300
0.00358824	1602.740000	8.273700
0.00359973	1602.740000	8.273700
0.00361138	1602.740000	8.273700
0.00362281	1602.740000	8.273700
0.00363448	2218.290000	9.839100
0.00364595	2218.290000	9.839100
0.00365760	2218.290000	9.839100
0.00366912	396.100000	4.103100
0.00368061	396.100000	4.103100
0.00369229	142.970000	2.439100
0.00370390	142.970000	2.439100
0.00371551	142.970000	2.439100
0.00372714	160.780000	2.698300
0.00373861	160.780000	2.698300
0.00375001	160.780000	2.698300
0.00376176	160.780000	2.698300
0.00377338	148.630000	2.535000
0.00378524	148.630000	2.535000
0.00379647	148.630000	2.535000
0.00380825	156.560000	2.649400
0.00381997	156.560000	2.649400
0.00383185	156.560000	2.649400
0.00384274	156.560000	2.649400
0.00385463	156.560000	2.649400
0.00386616	168.080000	2.797400
0.00387743	168.080000	2.797400
0.00388911	168.080000	2.797400
0.00390075	4.360000	0.044300
0.00391226	4.360000	0.044300
0.00392404	4.360000	0.044300
0.00393542	4.360000	0.044300
0.00394716	186.820000	2.885900
0.00395863	186.820000	2.885900
0.00397021	186.820000	2.885900
0.00398176	167.080000	2.580300
0.00399351	167.080000	2.580300
0.00400519	167.080000	2.580300
0.00401664	177.880000	2.745800
0.00402813	177.880000	2.745800
0.00403964	172.940000	2.630100
0.00405142	172.940000	2.630100
0.00406288	172.940000	2.630100
0.00407442	4.430000	0.044800
0.00408626	4.430000	0.044800
0.00409759	4.430000	0.044800
0.00410916	4.430000	0.044800
0.00412060	69.160000	1.770400
0.00413233	69.160000	1.770400
0.00414400	69.160000	1.770400
0.00415575	152.270000	2.532000
0.00416843	152.270000	2.532000
0.00417861	187.390000	2.979900
0.00419025	187.390000	2.979900
0.00420324	187.390000	2.979900
0.00421374	177.240000	2.840200
0.00422480	177.240000	2.840200
0.00423704	177.240000	2.840200
0.00424819	177.240000	2.840200
0.00425986	153.060000	2.660700
0.00427106	153.060000	2.660700
0.00428286	153.060000	2.660700
0.00429443	4.360000	0.044200
0.00430606	4.360000	0.044200
0.00431777	4.360000	0.044200
0.00432936	181.310000	2.849500
0.00434074	181.310000	2.849500
0.00435236	176.310000	2.710200
0.00436391	176.310000	2.710200
0.00437579	176.310000	2.710200
0.00438721	172.660000	2.684100
0.00439858	172.660000	2.684100
0.00441037	172.660000	2.684100
0.00442204	172.660000	2.684100
0.00443376	177.660000	2.772000
0.00444491	177.660000	2.772000
0.00445667	177.660000	2.772000
0.00446819	4.720000	0.046100
0.00447968	4.720000	0.046100
0.00449132	4.720000	0.046100
0.00450291	135.460000	2.475500
0.00451438	135.460000	2.475500
0.00452598	179.670000	2.923100
0.00453766	179.670000	2.923100
0.00454914	179.670000	2.923100
0.00456069	179.670000	2.923100
0.00457213	179.670000	2.923100
0.00458376	179.670000	2.923100
0.00459535	179.670000	2.923100
0.00460707	175.660000	2.836300
0.00461846	175.660000	2.836300
0.00463020	175.660000	2.836300
0.00464181	63.720000	1.651800
0.00465406	63.720000	1.651800
0.00466481	4.140000	0.043400
0.00467647	4.140000	0.043400
0.00468860	4.140000	0.043400
0.00470005	180.170000	2.790700
0.00471163	180.170000	2.790700
0.00472312	180.170000	2.790700
0.00473495	185.100000	2.855600
0.00474623	185.100000	2.855600
0.00475786	185.100000	2.855600
0.00476934	185.100000	2.855600
0.00478097	182.600000	2.827700
0.00479303	182.600000	2.827700
0.00480407	182.600000	2.827700
0.00481579	173.950000	2.751600
0.00482720	173.950000	2.751600
0.00483881	4.290000	0.044200
0.00485057	4.290000	0.044200
0.00486219	4.290000	0.044200
0.00487375	41.770000	1.284800
0.00488535	41.770000	1.284800
0.00489707	41.770000	1.284800
0.00490906	175.160000	2.833900
0.00492013	175.160000	2.833900
0.00493157	175.160000	2.833900
0.00494311	175.160000	2.833900
0.00495499	151.920000	2.662900
0.00496635	151.920000	2.662900
0.00497787	151.920000	2.662900
0.00498986	2100.990000	9.080000
0.00500122	2100.990000	9.080000
0.00501281	2233.810000	9.962500
0.00502407	2233.810000	9.962500
0.00503573	2233.810000	9.962500
0.00504734	2244.750000	10.026700
0.00505876	2244.750000	10.026700
0.00507063	2244.750000	10.026700
0.00508194	2244.750000	10.026700
0.00509383	2256.130000	10.112600
0.00510557	2256.130000	10.112600
0.00511763	2256.130000	10.112600
0.00512860	2248.970000	10.064600
0.00514021	2248.970000	10.064600
0.00515186	2103.560000	10.064600
0.00516380	2103.560000	9.063900
0.00517520	2103.560000	9.063900
0.00518666	2276.870000	10.244400
0.00519837	2276.870000	10.244400
0.00521009	2276.870000	10.244400
0.00522137	2269.640000	10.152300
0.00523307	2269.640000	10.152300
0.00524444	2269.640000	10.152300
0.00525652	2269.640000	10.152300
0.00526773	2264.850000	10.123000
0.00527914	2264.850000	10.123000
0.00529061	2264.850000	10.123000
0.00530264	2264.850000	10.123000
0.00531412	2264.850000	10.123000
0.00532580	2103.350000	9.065900
0.00533703	2103.350000	9.065900
0.00534888	2103.350000	9.065900
0.00536035	2102.630000	9.062900
0.00537170	2102.630000	9.062900
0.00538368	2102.630000	9.062900
0.00539492	2250.400000	10.052600
0.00540681	2250.400000	10.052600
0.00541826	2250.400000	10.052600
0.00542980	2250.400000	10.052600
0.00544176	2251.620000	10.063100
0.00545312	2251.620000	10.063100
0.00546487	2251.620000	10.063100
0.00547617	2255.840000	10.085200
0.00548795	2255.840000	10.085200
0.00549931	2238.390000	9.966500
0.00551097	2238.390000	9.966500
0.00552240	2238.390000	9.966500
0.00553403	2100.420000	9.060000
0.00554554	2100.420000	9.060000
0.00555728	2100.420000	9.060000
0.00556868	2100.420000	9.060000
0.00558061	2195.110000	9.718200
0.00559189	2195.110000	9.718200
0.00560362	2195.110000	9.718200
0.00561520	2266.070000	10.159000
0.00562663	2266.070000	10.159000
0.00563823	2266.070000	10.159000
0.00564988	2263.490000	10.139100
0.00566133	2263.490000	10.139100
0.00567277	2272.650000	10.203200
0.00568458	2272.650000	10.203200
0.00569597	2272.650000	10.203200
0.00570762	2105.640000	9.073200
0.00571965	2105.640000	9.073200
0.00573080	2105.640000	9.073200
0.00574264	2105.640000	9.073200
0.00575398	2106.070000	9.083000
0.00576580	2106.070000	9.083000
0.00577721	2106.070000	9.083000
0.00578882	2249.620000	10.024900
0.00580069	2249.620000	10.024900
0.00581215	2256.980000	10.087100
0.00582355	2256.980000	10.087100
0.00583514	2256.980000	10.087100
0.00584689	2253.770000	10.044800
0.00585830	2253.770000	10.044800
0.00586985	2253.770000	10.044800
0.00588139	2252.690000	10.059900
0.00589286	2252.690000	10.059900
0.00590470	2252.690000	10.059900
0.00591610	2252.690000	10.059900
0.00592766	2098.630000	9.057700
0.00593936	2098.630000	9.057700
0.00595104	2098.630000	9.057700
0.00596248	2257.200000	10.165600
0.00597410	2257.200000	10.165600
0.00598561	2251.550000	10.101600
0.00599714	2251.550000	10.101600
0.00600880	2251.550000	10.101600
0.00602042	2251.550000	10.101600
0.00603188	2251.550000	10.101600
0.00604367	2251.550000	10.101600
0.00605508	2251.550000	10.101600
0.00606758	2250.760000	10.113300
0.00607826	2250.760000	10.113300
0.00608962	2250.760000	10.113300
0.00610142	2089.830000	9.040200
0.00611301	2089.830000	9.040200
0.00612439	2112.650000	9.040200
0.00613625	2112.650000	9.179000
0.00614792	2112.650000	9.179000
0.00615926	2255.050000	10.087000
0.00617084	2255.050000	10.087000
0.00618226	2255.050000	10.087000
0.00619391	2258.770000	10.093700
0.00620551	2258.770000	10.093700
0.00621709	2258.770000	10.093700
0.00622863	2258.770000	10.093700
0.00624015	2248.400000	10.022100
0.00625178	2248.400000	10.022100
0.00626332	2248.400000	10.022100
0.00627501	2221.790000	9.889500
0.00628649	2221.790000	9.889500
0.00629816	2088.760000	9.037600
0.00630971	2088.760000	9.037600
0.00632130	2088.760000	9.037600
0.00633294	2240.180000	10.058500
0.00634441	2240.180000	10.058500
0.00635590	2240.180000	10.058500
0.00636763	2237.600000	10.050600
0.00637909	2237.600000	10.050600
0.00639093	2237.600000	10.050600
0.00640229	2237.600000	10.050600
0.00641381	2229.020000	9.988300
0.00642557	2229.020000	9.988300
0.00643727	2229.020000	9.988300
0.00644903	2253.120000	10.095300
0.00646045	2253.120000	10.095300
0.00647215	2096.410000	9.055900
0.00648353	2096.410000	9.055900
0.00649543	2096.410000	9.055900
0.00650672	2181.240000	9.682700
0.00651833	2181.240000	9.682700
0.00653000	2181.240000	9.682700
0.00654152	2238.460000	10.044200
0.00655322	2238.460000	10.044200
0.00656464	2238.460000	10.044200
0.00657620	2238.460000	10.044200
0.00658784	2240.390000	10.043400
0.00659953	2240.390000	10.043400
0.00661104	2240.390000	10.043400
0.00662249	2229.160000	10.015000
0.00663409	2229.160000	10.015000
0.00664569	2146.550000	9.499300
0.00665727	2146.550000	9.499300
0.00666867	2146.550000	9.499300
0.00668047	2074.520000	9.007700
0.00669207	2074.520000	9.007700
0.00670340	2074.520000	9.007700
0.00671524	2222.870000	9.996200
0.00672713	2222.870000	9.996200
0.00673858	2222.870000	9.996200
0.00675010	2222.870000	9.996200
0.00676153	2222.870000	9.996200
0.00677336	2222.870000	9.996200
0.00678471	2217.930000	9.991700
0.00679641	2217.930000	9.991700
0.00680804	2217.930000	9.991700
0.00681950	2216.930000	10.009800
0.00683105	2216.930000	10.009800
0.00684262	2216.930000	10.009800
0.00685422	2070.230000	8.999400
0.00686608	2070.230000	8.999400
0.00687720	2070.230000	8.999400
0.00688918	2070.230000	8.999400
0.00690057	2076.950000	9.035800
0.00691191	2076.950000	9.035800
0.00692360	2076.950000	9.035800
0.00693527	2215.640000	9.960400
0.00694684	2215.640000	9.960400
0.00695860	2217.360000	9.976100
0.00696988	2217.360000	9.976100
0.00698161	2217.360000	9.976100
0.00699297	2213.570000	9.968500
0.00700479	2213.570000	9.968500
0.00701639	2213.570000	9.968500
0.00702779	2085.610000	9.096800
0.00703942	2085.610000	9.096800
0.00705108	2085.610000	9.096800
0.00706260	2085.610000	9.096800
0.00707416	2068.230000	8.994700
0.00708578	2068.230000	8.994700
0.00709725	2068.230000	8.994700
0.00710877	2221.080000	10.020700
0.00712054	2221.080000	10.020700
0.00713191	2212.420000	9.953700
0.00714346	2212.420000	9.953700
0.00715510	2212.420000	9.953700
0.00716672	2229.730000	10.054800
0.00717831	2229.730000	10.054800
0.00718993	2229.730000	10.054800
0.00720149	2229.730000	10.054800
0.00721299	2184.170000	9.803400
0.00722446	2184.170000	9.803400
0.00723608	2184.170000	9.803400
0.00724780	2064.370000	8.986800
0.00725932	2064.370000	8.986800
0.00727103	2123.450000	9.440600
0.00728250	2123.450000	9.440600
0.00729424	2123.450000	9.440600
0.00730587	2195.040000	9.856700
0.00731769	2195.040000	9.856700
0.00732896	2195.040000	9.856700
0.00734071	2208.850000	9.939600
0.00735299	2208.850000	9.939600
0.00736404	2208.850000	9.939600
0.00737523	2208.850000	9.939600
0.00738679	2227.950000	9.993100
0.00740102	2227.950000	9.993100
0.00741006	2227.950000	9.993100
0.00742169	2085.820000	9.035400
0.00743312	2085.820000	9.035400
0.00744490	2084.750000	9.033300
0.00745632	2084.750000	9.033300
0.00746816	2084.750000	9.033300
0.00747919	2243.390000	10.135600
0.00749089	2243.390000	10.135600
0.00750262	2243.390000	10.135600
0.00751421	2222.650000	9.977200
0.00752584	2222.650000	9.977200
0.00753729	2222.650000	9.977200
0.00754884	2222.650000	9.977200
0.00756039	2229.520000	10.027500
0.00757196	2229.520000	10.027500
0.00758372	2229.520000	10.027500
0.00759523	2230.730000	10.003900
0.00760674	2230.730000	10.003900
0.00761823	2081.170000	9.024000
0.00762987	2081.170000	9.024000
0.00764147	2081.170000	9.024000
0.00765324	2216.640000	9.983000
0.00766466	2216.640000	9.983000
0.00767630	2216.640000	9.983000
0.00768784	2223.150000	9.984000
0.00769935	2223.150000	9.984000
0.00771108	2223.150000	9.984000
0.00772277	2223.150000	9.984000
0.00773416	2226.160000	9.985200
0.00774580	2226.160000	9.985200
0.00775759	2229.730000	10.016100
0.00776916	2229.730000	10.016100
0.00778083	2229.730000	10.016100
0.00779226	2099.130000	9.151500
0.00780369	2099.130000	9.151500
0.00781546	2099.130000	9.151500
0.00782700	2089.190000	9.091100
0.00783860	2089.190000	9.091100
0.00785016	2089.190000	9.091100
0.00786178	2089.190000	9.091100
0.00787343	2209.920000	9.935500
0.00788473	2209.920000	9.935500
0.00789640	2209.920000	9.935500
0.00790794	2216.720000	9.973800
0.00791949	2216.720000	9.973800
0.00793123	2215.360000	9.975900
0.00794269	2215.360000	9.975900
0.00795426	2215.360000	9.975900
0.00796593	2200.120000	9.882000
0.00797750	2200.120000	9.882000
0.00798900	2200.120000	9.882000
0.00800052	2072.950000	9.007100
0.00801216	2072.950000	9.007100
0.00802368	2072.950000	9.007100
0.00803520	2072.950000	9.007100
0.00804690	2220.220000	9.986000
0.00805847	2220.220000	9.986000
0.00807014	2220.220000	9.986000
0.00808185	2206.060000	9.872000
0.00809323	2206.060000	9.872000
0.00810478	2210.060000	9.909500
0.00811625	2210.060000	9.909500
0.00812797	2210.060000	9.909500
0.00813948	2216.640000	9.947800
0.00815110	2216.640000	9.947800
0.00816267	2216.640000	9.947800
0.00817428	2078.240000	9.020400
0.00818587	2078.240000	9.020400
0.00819757	2078.240000	9.020400
0.00820881	2078.240000	9.020400
0.00822049	2073.160000	9.010300
0.00823211	2073.160000	9.010300
0.00824360	2211.780000	9.010300
0.00825525	2211.780000	9.994700
0.00826670	2211.780000	9.994700
0.00827834	2176.160000	9.818100
0.00828991	2176.160000	9.818100
0.00830155	2176.160000	9.818100
0.00831325	2192.330000	9.904800
0.00832476	2192.330000	9.904800
0.00833641	2192.330000	9.904800
0.00834793	2127.740000	9.467500
0.00835956	2127.740000	9.467500
0.00837111	2127.740000	9.467500
0.00838270	2127.740000	9.467500
0.00839424	2057.210000	8.973300
0.00840591	2057.210000	8.973300
0.00841742	2223.940000	10.007100
0.00842897	2223.940000	10.007100
0.00844057	2223.940000	10.007100
0.00845205	2216.070000	9.936900
0.00846382	2216.070000	9.936900
0.00847534	2216.070000	9.936900
0.00848683	2222.010000	9.940100
0.00849846	2222.010000	9.940100
0.00851013	2222.010000	9.940100
0.00852153	2222.010000	9.940100
0.00853326	2223.510000	9.952600
0.00854472	2223.510000	9.952600
0.00855634	2223.510000	9.952600
0.00856809	2082.100000	9.029000
0.00857950	2082.100000	9.029000
0.00859102	2088.540000	9.063400
0.00860272	2088.540000	9.063400
0.00861405	2088.540000	9.063400
0.00862610	2217.860000	9.968800
0.00863780	2217.860000	9.968800
0.00864929	2217.860000	9.968800
0.00866079	2220.580000	9.977900
0.00867230	2220.580000	9.977900
0.00868389	2220.580000	9.977900
0.00869566	2220.580000	9.977900
0.00870709	2208.920000	9.917400
0.00871865	2208.920000	9.917400
0.00873024	2096.700000	9.917400
0.00874204	2096.700000	9.161600
0.00875338	2096.700000	9.161600
0.00876507	2075.740000	9.014300
0.00877671	2075.740000	9.014300
0.00878823	2075.740000	9.014300
0.00879970	2223.150000	10.033200
0.00881112	2223.150000	10.033200
0.00882292	2223.150000	10.033200
0.00883427	2215.360000	9.935900
0.00884601	2215.360000	9.935900
0.00885756	2215.360000	9.935900
0.00886924	2215.360000	9.935900
0.00888088	2223.940000	9.986100
0.00889226	2223.940000	9.986100
0.00890387	2217.930000	9.948600
0.00891550	2217.930000	9.948600
0.00892705	2217.930000	9.948600
0.00893881	2075.310000	9.013700
0.00895029	2075.310000	9.013700
0.00896175	2075.310000	9.013700
0.00897338	2136.110000	9.460600
0.00898485	2136.110000	9.460600
0.00899647	2136.110000	9.460600
0.00900813	2224.370000	9.989100
0.00901962	2224.370000	9.989100
0.00903146	2224.370000	9.989100
0.00904281	2224.370000	9.989100
0.00905429	2214.000000	9.939800
0.00906600	2214.000000	9.939800
0.00907731	2221.150000	10.014200
0.00908914	2221.150000	10.014200
0.00910063	2221.150000	10.014200
0.00911227	2170.870000	9.723200
0.00912391	2170.870000	9.723200
0.00913521	2170.870000	9.723200
0.00914704	2064.800000	8.993300
0.00915833	2064.800000	8.993300
0.00917005	2064.800000	8.993300
0.00918174	2064.800000	8.993300
0.00919422	2203.270000	9.947200
0.00920475	2203.270000	9.947200
0.00921655	2201.550000	9.947200
0.00922804	2201.550000	9.947200
0.00923961	2201.550000	9.947200
0.00925102	2195.260000	9.878300
0.00926269	2195.260000	9.878300
0.00927404	2195.260000	9.878300
0.00928587	2203.840000	9.913000
0.00929748	2203.840000	9.913000
0.00930890	2203.840000	9.913000
0.00932057	2077.960000	9.020800
0.00933211	2077.960000	9.020800
0.00934368	2077.960000	9.020800
0.00935522	2077.960000	9.020800
0.00936698	2207.420000	9.934700
0.00937844	2207.420000	9.934700
0.00938998	2216.720000	9.985600
0.00940164	2216.720000	9.985600
0.00941316	2216.720000	9.985600
0.00942485	2214.360000	9.950300
0.00943624	2214.360000	9.950300
0.00944846	2214.360000	9.950300
0.00945953	2225.510000	10.019100
0.00947120	2225.510000	10.019100
0.00948301	2225.510000	10.019100
0.00949438	2225.510000	10.019100
0.00950583	2107.920000	9.210300
0.00951763	2107.920000	9.210300
0.00952914	2107.920000	9.210300
0.00954071	2083.960000	9.033200
0.00955226	2083.960000	9.033200
0.00956382	2217.790000	9.947100
0.00957552	2217.790000	9.947100
0.00958687	2217.790000	9.947100
0.00959841	2204.480000	9.880700
0.00960988	2204.480000	9.880700
0.00962174	2204.480000	9.880700
0.00963341	2209.780000	9.929200
0.00964483	2209.780000	9.929200
0.00965648	2209.780000	9.929200
0.00966801	2209.780000	9.929200
0.00967971	2199.690000	9.853100
0.00969135	2199.690000	9.853100
0.00970280	2071.520000	9.006900
0.00971472	2071.520000	9.006900
0.00972587	2071.520000	9.006900
0.00973795	2213.930000	9.970900
0.00974914	2213.930000	9.970900
0.00976074	2213.930000	9.970900
0.00977234	2206.130000	9.923400
0.00978447	2206.130000	9.923400
0.00979556	2206.130000	9.923400
0.00980703	2199.480000	9.877300
0.00981870	2199.480000	9.877300
0.00983019	2199.480000	9.877300
0.00984299	2199.480000	9.877300
0.00985326	4.290000	0.044800
0.00986488	4.290000	0.044800
0.00987642	4.360000	0.045400
0.00988807	4.360000	0.045400
0.00989951	4.360000	0.045400
0.00991112	4.290000	0.044700
0.00992295	4.290000	0.044700
0.00993470	4.290000	0.044700
0.00994627	2221.010000	9.982200
0.00995750	2221.010000	9.982200
0.00996900	2221.010000	9.982200
0.00998072	2195.690000	9.835700
0.00999236	2195.690000	9.835700
0.01000370	2195.690000	9.835700
0.01001571	2195.690000	9.835700
0.01002711	2213.930000	9.948400
0.01003905	2213.930000	9.948400
0.01005037	2208.350000	9.956400
0.01006176	2208.350000	9.956400
0.01007323	2208.350000	9.956400
0.01008503	2061.930000	8.986800
0.01009664	2061.930000	8.986800
0.01010837	2061.930000	8.986800
0.01011962	2061.220000	8.992900
0.01013139	2061.220000	8.992900
0.01014287	2061.220000	8.992900
0.01015449	2061.220000	8.992900
0.01016595	2198.260000	9.937300
0.01017773	2198.260000	9.937300
0.01018938	2198.620000	9.936700
0.01020102	2198.620000	9.936700
0.01021278	2198.620000	9.936700
0.01022422	2200.770000	9.934800
0.01023574	2200.770000	9.934800
0.01024722	2200.770000	9.934800
0.01025874	2093.050000	9.157200
0.01027038	2093.050000	9.157200
0.01028201	2093.050000	9.157200
0.01029492	2066.510000	8.996100
0.01030507	2066.510000	8.996100
0.01031669	2066.510000	8.996100
0.01032816	2066.510000	8.996100
0.01033979	2232.170000	10.114700
0.01035149	2232.170000	10.114700
0.01036313	2214.570000	9.990500
0.01037502	2214.570000	9.990500
0.01038637	2214.570000	9.990500
0.01039785	2214.070000	9.968800
0.01040946	2214.070000	9.968800
0.01042103	2214.070000	9.968800
0.01043255	2209.490000	9.921200
0.01044399	2209.490000	9.921200
0.01045579	2209.490000	9.921200
0.01046734	2073.160000	9.011500
0.01047876	2073.160000	9.011500
0.01049035	2073.160000	9.011500
0.01050223	2142.040000	9.011500
0.01051382	2142.040000	9.513300
0.01052503	2142.040000	9.513300
0.01053676	2219.360000	10.016800
0.01054904	2219.360000	10.016800
0.01055998	2219.360000	10.016800
0.01057155	2215.290000	10.000700
0.01058292	2215.290000	10.000700
0.01059465	2215.290000	10.000700
0.01060620	2199.840000	9.883000
0.01061781	2199.840000	9.883000
0.01062933	2199.840000	9.883000
0.01064082	2199.840000	9.883000
0.01065245	2161.710000	9.624900
0.01066412	2161.710000	9.624900
0.01067549	2073.020000	9.011600
0.01068722	2073.020000	9.011600
0.01069903	2073.020000	9.011600
0.01071037	2231.160000	10.099600
0.01072183	2231.160000	10.099600
0.01073362	2231.160000	10.099600
0.01074513	2194.040000	9.807400
0.01075660	2194.040000	9.807400
0.01076819	2194.040000	9.807400
0.01077990	2214.000000	9.948100
0.01079177	2214.000000	9.948100
0.01080450	2214.000000	9.948100
0.01081514	2214.000000	9.948100
0.01082678	2208.350000	9.937200
0.01083854	2208.350000	9.937200
0.01084968	2066.940000	8.998300
0.01086089	2066.940000	8.998300
0.01087233	2066.940000	8.998300
0.01088398	2192.040000	9.883100
0.01089564	2192.040000	9.883100
0.01090721	2192.040000	9.883100
0.01091878	2208.920000	9.986400
0.01093021	2208.920000	9.986400
0.01094196	2208.920000	9.986400
0.01095358	2208.920000	9.986400
0.01096505	2195.540000	9.864800
0.01097655	2195.540000	9.864800
0.01098887	2207.770000	9.981100
0.01100119	2207.770000	9.981100
0.01101153	2207.770000	9.981100
0.01102292	2080.750000	9.107300
0.01103469	2080.750000	9.107300
0.01104604	2080.750000	9.107300
0.01105770	2075.450000	9.092200
0.01106933	2075.450000	9.092200
0.01108069	2075.450000	9.092200
0.01109235	2201.050000	9.904000
0.01110428	2201.050000	9.904000
0.01111582	2201.050000	9.904000
0.01112759	2201.050000	9.904000
0.01113878	2206.490000	9.895300
0.01115046	2206.490000	9.895300
0.01116200	2221.150000	9.999100
0.01117348	2221.150000	9.999100
0.01118515	2221.150000	9.999100
0.01119661	2192.470000	9.813000
0.01120814	2192.470000	9.813000
0.01121977	2192.470000	9.813000
0.01123127	2071.950000	9.010100
0.01124277	2071.950000	9.010100
0.01125443	2071.950000	9.010100
0.01126602	2218.070000	10.032700
0.01127767	2218.070000	10.032700
0.01128931	2218.070000	10.032700
0.01130095	2218.070000	10.032700
0.01131249	2201.340000	9.910500
0.01132434	2201.340000	9.910500
0.01133654	2206.060000	9.939800
0.01134726	2206.060000	9.939800
0.01135868	2206.060000	9.939800
0.01137052	2193.400000	9.835600
0.01138177	2193.400000	9.835600
0.01139350	2193.400000	9.835600
0.01140501	2071.950000	9.011100
0.01141653	2071.950000	9.011100
0.01142837	2071.950000	9.011100
0.01143975	2071.950000	9.011100
0.01145120	2066.440000	8.997900
0.01146302	2066.440000	8.997900
0.01147449	2205.200000	9.921300
0.01148655	2205.200000	9.921300
0.01149770	2205.200000	9.921300
0.01150931	2203.980000	9.894200
0.01152084	2203.980000	9.894200
0.01153255	2203.980000	9.894200
0.01154432	2199.760000	9.862000
0.01155571	2199.760000	9.862000
0.01156730	2199.760000	9.862000
0.01157884	2148.270000	9.575300
0.01159060	2148.270000	9.575300
0.01160213	2148.270000	9.575300
0.01161385	2148.270000	9.575300
0.01162500	2061.500000	8.987000
0.01163663	2061.500000	8.987000
0.01164831	2161.210000	9.705800
0.01166023	2161.210000	9.705800
0.01167189	2161.210000	9.705800
0.01168346	2211.280000	10.012800
0.01169500	2211.280000	10.012800
0.01170735	2211.280000	10.012800
0.01171789	2202.770000	9.957800
0.01172957	2202.770000	9.957800
0.01174131	2202.770000	9.957800
0.01175280	2212.280000	9.963700
0.01176444	2212.280000	9.963700
0.01177601	2212.280000	9.963700
0.01178752	2071.660000	9.010400
0.01179895	2071.660000	9.010400
0.01181079	2071.660000	9.010400
0.01182220	2078.530000	9.051900
0.01183384	2078.530000	9.051900
0.01184535	2078.530000	9.051900
0.01185701	2213.350000	9.977100
0.01186875	2213.350000	9.977100
0.01188001	2213.350000	9.977100
0.01189167	2208.280000	9.916100
0.01190316	2208.280000	9.916100
0.01191487	2208.280000	9.916100
0.01192650	2208.280000	9.916100
0.01193785	2220.580000	10.023100
0.01194944	2220.580000	10.023100
0.01196117	2210.210000	9.943700
0.01197274	2210.210000	9.943700
0.01198435	2210.210000	9.943700
0.01199576	2066.800000	8.999500
0.01200740	2066.800000	8.999500
0.01201899	2066.800000	8.999500
0.01203065	2221.220000	10.106200
0.01204213	2221.220000	10.106200
0.01205363	2221.220000	10.106200
0.01206541	2195.540000	9.871200
0.01207689	2195.540000	9.871200
0.01208843	2195.540000	9.871200
0.01209990	2199.840000	9.871200
0.01211160	2199.840000	9.904500
0.01212314	2199.840000	9.904500
0.01213463	2198.480000	9.902800
0.01214632	2198.480000	9.902800
0.01215785	2198.480000	9.902800
0.01216941	2069.590000	9.005800
0.01218106	2069.590000	9.005800
0.01219273	2069.590000	9.005800
0.01220439	2109.640000	9.306200
0.01221557	2109.640000	9.306200
0.01222729	2109.640000	9.306200
0.01223890	2197.620000	9.856400
0.01225051	2197.620000	9.856400
0.01226208	2197.620000	9.856400
0.01227374	2216.790000	10.000000
0.01228509	2216.790000	10.000000
0.01229671	2216.790000	10.000000
0.01230844	2202.480000	9.877300
0.01232034	2202.480000	9.877300
0.01233156	2202.480000	9.877300
0.01234303	2156.710000	9.592600
0.01235458	2156.710000	9.592600
0.01236637	2156.710000	9.592600
0.01237803	2070.020000	9.007100
0.01238942	2070.020000	9.007100
0.01240104	2070.020000	9.007100
0.01241272	2070.020000	9.007100
0.01242429	2208.560000	9.968500
0.01243593	2208.560000	9.968500
0.01244735	2199.840000	9.905000
0.01245919	2199.840000	9.905000
0.01247052	2199.840000	9.905000
0.01248214	2207.060000	9.958500
0.01249378	2207.060000	9.958500
0.01250530	2207.060000	9.958500
0.01251666	2198.760000	9.964000
0.01252840	2198.760000	9.964000
0.01254008	2198.760000	9.964000
0.01255147	2061.580000	8.990000
0.01256312	2061.580000	8.990000
0.01257465	2061.580000	8.990000
0.01258622	2061.580000	8.990000
0.01259809	2179.520000	9.788200
0.01260946	2179.520000	9.788200
0.01262097	2215.000000	9.999700
0.01263256	2215.000000	9.999700
0.01264407	2215.000000	9.999700
0.01265583	2202.770000	9.879800
0.01266772	2202.770000	9.879800
0.01267906	2202.770000	9.879800
0.01269061	2200.550000	9.843600
0.01270238	2200.550000	9.843600
0.01271410	2200.550000	9.843600
0.01272562	2124.450000	9.379400
0.01273730	2124.450000	9.379400
0.01274897	2124.450000	9.379400
0.01276052	2072.660000	9.015700
0.01277233	2072.660000	9.015700
0.01278351	2072.660000	9.015700
0.01279528	2197.830000	9.905600
0.01280677	2197.830000	9.905600
0.01281825	2197.830000	9.905600
0.01283028	2188.390000	9.831600
0.01284150	2188.390000	9.831600
0.01285294	2188.390000	9.831600
0.01286462	2202.340000	9.977000
0.01287610	2202.340000	9.977000
0.01288780	2202.340000	9.977000
0.01289941	2202.340000	9.977000
0.01291076	2191.610000	9.869900
0.01292241	2191.610000	9.869900
0.01293403	2063.360000	8.993300
0.01294554	2063.360000	8.993300
0.01295711	2063.360000	8.993300
0.01296892	2101.340000	9.266900
0.01298034	2101.340000	9.266900
0.01299186	2101.340000	9.266900
0.01300340	2202.770000	9.926900
0.01301512	2202.770000	9.926900
0.01302678	2202.770000	9.926900
0.01303825	2219.860000	10.034900
0.01304972	2219.860000	10.034900
0.01306134	2197.760000	10.034900
0.01307301	2197.760000	10.034900
0.01308470	2197.760000	9.866100
0.01309623	2197.760000	9.866100
0.01310774	2067.660000	9.004200
0.01311958	2067.660000	9.004200
0.01313089	2067.660000	9.004200
0.01314245	4.000000	0.043400
0.01315409	4.000000	0.043400
0.01316561	4.000000	0.043400
0.01317731	140.330000	2.626600
0.01318881	140.330000	2.626600
0.01320052	140.330000	2.626600
0.01321220	150.630000	2.783000
0.01322377	150.630000	2.783000
0.01323529	150.630000	2.783000
0.01324670	136.820000	2.601300
0.01325839	136.820000	2.601300
0.01326997	136.820000	2.601300
0.01328169	108.140000	2.361900
0.01329323	108.140000	2.361900
0.01330485	108.140000	2.361900
0.01331627	3.860000	0.043100
0.01332786	3.860000	0.043100
0.01333959	3.860000	0.043100
0.01335109	87.040000	2.081500
0.01336256	87.040000	2.081500
0.01337426	87.040000	2.081500
0.01338575	160.070000	2.804200
0.01339780	160.070000	2.804200
0.01340902	160.070000	2.804200
0.01342060	143.120000	2.530000
0.01343223	143.120000	2.530000
0.01344366	143.120000	2.530000
0.01345536	145.840000	2.612100
0.01346696	145.840000	2.612100
0.01347885	145.840000	2.612100
0.01349020	4.360000	0.045400
0.01350162	4.360000	0.045400
0.01351329	4.360000	0.045400
0.01352484	4.570000	0.116400
0.01353650	4.570000	0.116400
0.01354795	4.570000	0.116400
0.01355944	147.340000	2.745200
0.01357128	147.340000	2.745200
0.01358282	147.340000	2.745200
0.01359426	128.310000	2.479800
0.01360588	128.310000	2.479800
0.01361757	128.310000	2.479800
0.01362905	145.330000	2.727600
0.01364060	145.330000	2.727600
0.01365206	145.330000	2.727600
0.01366369	135.040000	2.575300
0.01367529	135.040000	2.575300
0.01368696	135.040000	2.575300
0.01369840	3.860000	0.043000
0.01371013	3.860000	0.043000
0.01372157	142.040000	2.693700
0.01373313	142.040000	2.693700
0.01374473	142.040000	2.693700
0.01375635	142.040000	2.693700
0.01376801	149.130000	2.643400
0.01377949	149.130000	2.643400
0.01379088	149.130000	2.643400
0.01380264	152.630000	2.742500
0.01381404	152.630000	2.742500
0.01382574	152.630000	2.742500
0.01383733	144.620000	2.601900
0.01384876	144.620000	2.601900
0.01386056	144.620000	2.601900
0.01387213	30.890000	1.135200
0.01388380	30.890000	1.135200
0.01389532	30.890000	1.135200
0.01390696	14.230000	0.647500
0.01391832	14.230000	0.647500
0.01393001	14.230000	0.647500
0.01394162	131.820000	2.518200
0.01395315	131.820000	2.518200
0.01396484	131.820000	2.518200
0.01397626	143.550000	2.692800
0.01398794	143.550000	2.692800
0.01399962	143.550000	2.692800
0.01401108	148.910000	2.801300
0.01402253	148.910000	2.801300
0.01403412	133.180000	2.587400
0.01404591	133.180000	2.587400
0.01405734	133.180000	2.587400
0.01406876	133.180000	2.587400
0.01408065	3.930000	0.043200
0.01409190	3.930000	0.043200
0.01410354	3.930000	0.043200
0.01411538	147.050000	2.598500
0.01412690	147.050000	2.598500
0.01413843	147.050000	2.598500
0.01415007	143.400000	2.587600
0.01416168	143.400000	2.587600
0.01417325	143.400000	2.587600
0.01418469	159.640000	2.805500
0.01419626	159.640000	2.805500
0.01420797	159.640000	2.805500
0.01421971	142.550000	2.577400
0.01423113	142.550000	2.577400
0.01424281	142.550000	2.577400
0.01425437	4.290000	0.045000
0.01426604	4.290000	0.045000
0.01427757	4.290000	0.045000
0.01428920	145.550000	2.834300
0.01430072	145.550000	2.834300
0.01431243	145.550000	2.834300
0.01432381	144.050000	2.705800
0.01433545	144.050000	2.705800
0.01434698	144.050000	2.705800
0.01435869	120.590000	2.383200
0.01437007	120.590000	2.383200
0.01438186	120.590000	2.383200
0.01439329	141.760000	2.699000
0.01440503	141.760000	2.699000
0.01441656	141.760000	2.699000
0.01442811	5.360000	0.272600
0.01443977	5.360000	0.272600
0.01445134	5.360000	0.272600
0.01446293	3.930000	0.043400
0.01447449	3.930000	0.043400
0.01448608	3.930000	0.043400
0.01449778	139.110000	2.574500
0.01450909	139.110000	2.574500
0.01452067	148.340000	2.574500
0.01453249	148.340000	2.641400
0.01454396	148.340000	2.641400
0.01455574	148.340000	2.641400
0.01456705	135.820000	2.462300
0.01457874	135.820000	2.462300
0.01459034	135.820000	2.462300
0.01460185	113.150000	2.312200
0.01461336	113.150000	2.312200
0.01462497	113.150000	2.312200
0.01463682	4.000000	0.043900
0.01464841	4.000000	0.043900
0.01465993	4.000000	0.043900
0.01467150	56.710000	1.668100
0.01468319	56.710000	1.668100
0.01469468	138.330000	2.660500
0.01470628	138.330000	2.660500
0.01471796	138.330000	2.660500
0.01472975	138.330000	2.660500
0.01474122	138.680000	2.649100
0.01475289	138.680000	2.649100
0.01476443	138.680000	2.649100
0.01477648	142.190000	2.695700
0.01478787	142.190000	2.695700
0.01479956	142.190000	2.695700
0.01481123	4.360000	0.045600
0.01482291	4.360000	0.045600
0.01483427	4.360000	0.045600
0.01484586	5.930000	0.220200
0.01485744	5.930000	0.220200
0.01486905	150.270000	2.704900
0.01488079	150.270000	2.704900
0.01489221	150.270000	2.704900
0.01490387	150.270000	2.704900
0.01491542	149.480000	2.668100
0.01492713	149.480000	2.668100
0.01493861	149.480000	2.668100
0.01495020	137.820000	2.494500
0.01496168	137.820000	2.494500
0.01497330	137.820000	2.494500
0.01498471	128.100000	2.414100
0.01499638	128.100000	2.414100
0.01500819	128.100000	2.414100
0.01501961	3.930000	0.043300
0.01503101	3.930000	0.043300
0.01504299	3.930000	0.043300
0.01505451	135.460000	2.658900
0.01506588	135.460000	2.658900
0.01507742	135.460000	2.658900
0.01508918	137.180000	2.637000
0.01510064	137.180000	2.637000
0.01511220	137.180000	2.637000
0.01512369	131.460000	2.545200
0.01513529	131.460000	2.545200
0.01514689	131.460000	2.545200
0.01515831	132.100000	2.560800
0.01516995	132.100000	2.560800
0.01518153	4.360000	0.087800
0.01519330	4.360000	0.087800
0.01520478	4.360000	0.087800
0.01521640	4.360000	0.087800
0.01522787	31.750000	1.141400
0.01523959	31.750000	1.141400
0.01525097	31.750000	1.141400
0.01526256	154.990000	2.819300
0.01527420	154.990000	2.819300
0.01528572	154.990000	2.819300
0.01529725	140.900000	2.555100
0.01530890	140.900000	2.555100
0.01532045	140.900000	2.555100
0.01533182	139.830000	2.556900
0.01534372	139.830000	2.556900
0.01535528	108.360000	2.225000
0.01536684	108.360000	2.225000
0.01537844	108.360000	2.225000
0.01538993	108.360000	2.225000
0.01540142	4.000000	0.044700
0.01541301	4.000000	0.044700
0.01542459	4.000000	0.044700
0.01543612	138.110000	2.692300
0.01544803	138.110000	2.692300
0.01545941	138.110000	2.692300
0.01547100	137.320000	2.659000
0.01548309	137.320000	2.659000
0.01549407	137.320000	2.659000
0.01550554	127.600000	2.483400
0.01551725	127.600000	2.483400
0.01552897	127.600000	2.506100
0.01554045	127.600000	2.506100
0.01555199	127.600000	2.506100
0.01556344	127.600000	2.506100
0.01557536	4.220000	0.045100
0.01558679	4.220000	0.045100
0.01559823	4.220000	0.045100
0.01560979	122.090000	2.447900
0.01562140	122.090000	2.447900
0.01563302	122.090000	2.447900
0.01564477	153.490000	2.730800
0.01565620	153.490000	2.730800
0.01566766	153.420000	2.717700
0.01567929	153.420000	2.717700
0.01569098	153.420000	2.717700
0.01570296	153.420000	2.717700
0.01571461	141.040000	2.569800
0.01572608	141.040000	2.569800
0.01573789	141.040000	2.569800
0.01574946	37.900000	1.268100
0.01576119	37.900000	1.268100
0.01577313	37.900000	1.268100
0.01578501	3.860000	0.043100
0.01579753	3.860000	0.043100
0.01580796	3.860000	0.043100
0.01581963	3.860000	0.043100
0.01583144	3.860000	0.043100
0.01584331	118.080000	2.396200
0.01585459	118.080000	2.396200
0.01586664	118.080000	2.396200
0.01587907	134.680000	2.628700
0.01588969	134.680000	2.628700
0.01590132	134.680000	2.628700
0.01591325	134.680000	2.628700
0.01592446	130.960000	2.549800
0.01593625	130.960000	2.549800
0.01594733	130.960000	2.549800
0.01595920	4.070000	0.044200
0.01597074	4.070000	0.044200
0.01598263	4.070000	0.044200
0.01599403	49.130000	1.489200
0.01600547	49.130000	1.489200
0.01601696	146.050000	2.675200
0.01602902	146.050000	2.675200
0.01604036	146.050000	2.675200
0.01605233	142.330000	2.648800
0.01606395	142.330000	2.648800
0.01607573	142.330000	2.648800
0.01608734	142.330000	2.648800
0.01609897	137.470000	2.557300
0.01611051	137.470000	2.557300
0.01612200	137.470000	2.557300
0.01613367	4.430000	0.045900
0.01614583	4.430000	0.045900
0.01615712	4.430000	0.045900
0.01616860	4.070000	0.045400
0.01618050	4.070000	0.045400
0.01619192	131.030000	2.602700
0.01620376	131.030000	2.602700
0.01621551	131.030000	2.602700
0.01622735	126.600000	2.505100
0.01623894	126.600000	2.505100
0.01625060	126.600000	2.505100
0.01626215	126.600000	2.505100
0.01627363	140.110000	2.696700
0.01628523	140.110000	2.696700
0.01629731	140.110000	2.696700
0.01630882	141.330000	2.737500
0.01632083	141.330000	2.737500
0.01633248	4.000000	2.737500
0.01634435	4.000000	0.044000
0.01635595	4.000000	0.044000
0.01636741	96.770000	2.145400
0.01637913	96.770000	2.145400
0.01639074	96.770000	2.145400
0.01640245	139.900000	2.602400
0.01641399	139.900000	2.602400
0.01642553	139.900000	2.602400
0.01643719	147.410000	2.685500
0.01644881	147.410000	2.685500
0.01646034	147.410000	2.685500
0.01647207	147.410000	2.685500
0.01648353	123.880000	2.370800
0.01649568	123.880000	2.370800
0.01650661	4.360000	0.045800
0.01651815	4.360000	0.045800
0.01652965	4.360000	0.045800
0.01654125	4.360000	0.045800
0.01655329	4.360000	0.045800
0.01656462	4.360000	0.045800
0.01657615	132.600000	2.597200
0.01658756	132.600000	2.597200
0.01659917	132.600000	2.597200
0.01661082	132.600000	2.597200
0.01662255	123.380000	2.482100
0.01663398	123.380000	2.482100
0.01664549	123.380000	2.482100
0.01665718	127.810000	2.524700
0.01666870	127.810000	2.524700
0.01668046	126.880000	2.520000
0.01669189	126.880000	2.520000
0.01670347	126.880000	2.520000
0.01671502	3.930000	0.043300
0.01672644	3.930000	0.043300
0.01673826	3.930000	0.043300
0.01674959	142.900000	2.643200
0.01676122	142.900000	2.643200
0.01677288	142.900000	2.643200
0.01678442	142.900000	2.643200
0.01679593	128.810000	2.418500
0.01680749	128.810000	2.418500
0.01681917	143.900000	2.418500
0.01683067	143.900000	2.638000
0.01684241	143.900000	2.638000
0.01685407	139.900000	2.567700
0.01686534	139.900000	2.567700
0.01687692	139.900000	2.567700
0.01688858	4.360000	0.045400
0.01690019	4.360000	0.045400
0.01691168	4.360000	0.045400
0.01692344	4.360000	0.045400
0.01693492	67.730000	1.956000
0.01694639	67.730000	1.956000
0.01695802	67.730000	1.956000
0.01696963	129.530000	2.541100
0.01698123	129.530000	2.541100
0.01699262	140.540000	2.727800
0.01700418	140.540000	2.727800
0.01701590	140.540000	2.727800
0.01702759	128.960000	2.566900
0.01703903	128.960000	2.566900
0.01705058	128.960000	2.566900
0.01706233	67.800000	1.754000
0.01707402	67.800000	1.754000
0.01708524	67.800000	1.754000
0.01709699	67.800000	1.754000
0.01710837	3.860000	0.043100
0.01712110	3.860000	0.043100
0.01713190	3.860000	0.043100
0.01714333	136.970000	2.575700
0.01715640	136.970000	2.575700
0.01716668	145.620000	2.682900
0.01717788	145.620000	2.682900
0.01718994	145.620000	2.682900
0.01720149	146.910000	2.715800
0.01721296	146.910000	2.715800
0.01722443	146.910000	2.715800
0.01723609	131.600000	2.470400
0.01724778	131.600000	2.470400
0.01725925	131.600000	2.470400
0.01727100	131.600000	2.470400
0.01728257	131.600000	2.470400
0.01729414	131.600000	2.470400
0.01730576	131.600000	2.470400
0.01731743	6.650000	0.293100
0.01732907	6.650000	0.293100
0.01734082	131.890000	2.595900
0.01735223	131.890000	2.595900
0.01736432	131.890000	2.595900
0.01737563	128.810000	2.550400
0.01738755	128.810000	2.550400
0.01739919	128.810000	2.550400
0.01741095	135.540000	2.673700
0.01742249	135.540000	2.673700
0.01743435	135.540000	2.673700
0.01744630	135.540000	2.673700
0.01745787	23.310000	0.992100
0.01747101	23.310000	0.992100
0.01748119	3.930000	0.043300
0.01749289	3.930000	0.043300
0.01750418	3.930000	0.043300
0.01751576	144.690000	2.675500
0.01752747	144.690000	2.675500
0.01753892	144.690000	2.675500
0.01755053	136.890000	2.544300
0.01756216	136.890000	2.544300
0.01757380	136.890000	2.544300
0.01758529	126.950000	2.404200
0.01759814	126.950000	2.404200
0.01760833	126.950000	2.404200
0.01761991	126.950000	2.404200
0.01763148	110.570000	2.264100
0.01764343	110.570000	2.264100
0.01765523	4.000000	0.043600
0.01766670	4.000000	0.043600
0.01767815	4.000000	0.043600
0.01769003	66.440000	1.890600
0.01770161	66.440000	1.890600
0.01771330	66.440000	1.890600
0.01772476	138.470000	2.671500
0.01773647	138.470000	2.671500
0.01774803	138.470000	2.671500
0.01775977	127.670000	2.506900
0.01777095	127.670000	2.506900
0.01778279	127.670000	2.506900
0.01779419	127.670000	2.506900
0.01780655	144.910000	2.826400
0.01781762	144.910000	2.826400
0.01782946	4.430000	0.045700
0.01784074	4.430000	0.045700
0.01785247	4.430000	0.045700
0.01786492	4.070000	0.044200
0.01787532	4.070000	0.044200
0.01788683	4.070000	0.044200
0.01789834	136.610000	2.620000
0.01791007	136.610000	2.620000
0.01792176	136.610000	2.620000
0.01793316	140.190000	2.618800
0.01794478	140.190000	2.618800
0.01795628	140.190000	2.618800
0.01796786	139.180000	2.601000
0.01797937	139.180000	2.601000
0.01799102	139.180000	2.601000
0.01800265	139.180000	2.601000
0.01801432	139.180000	2.601000
0.01802573	139.180000	2.601000
0.01803734	3.930000	0.043200
0.01805052	3.930000	0.043200
0.01806053	3.930000	0.043200
0.01807215	117.300000	2.506300
0.01808378	117.300000	2.506300
0.01809519	117.300000	2.506300
0.01810675	128.030000	2.546200
0.01811828	128.030000	2.546200
0.01812983	128.030000	2.546200
0.01814144	137.900000	2.700200
0.01815328	137.900000	2.700200
0.01816464	137.900000	2.700200
0.01817615	139.970000	2.724900
0.01818769	139.970000	2.724900
0.01819928	139.970000	2.724900
0.01821086	19.380000	0.838900
0.01822252	19.380000	0.838900
0.01823420	19.380000	0.838900
0.01824574	20.020000	0.851800
0.01825728	20.020000	0.851800
0.01826881	20.020000	0.851800
0.01828059	20.020000	0.851800
0.01829197	129.600000	2.481800
0.01830481	129.600000	2.481800
0.01831575	123.450000	2.386100
0.01832667	123.450000	2.386100
0.01833816	123.450000	2.386100
0.01834983	135.750000	2.579800
0.01836153	135.750000	2.579800
0.01837315	135.750000	2.579800
0.01838506	128.740000	2.478100
0.01839663	128.740000	2.478100
0.01840852	128.740000	2.478100
0.01842000	4.220000	0.044400
0.01843169	4.220000	0.044400
0.01844345	135.540000	0.044400
0.01845505	135.540000	0.044400
0.01846672	135.540000	2.653400
0.01847880	135.540000	2.653400
0.01849021	125.590000	2.512200
0.01850182	125.590000	2.512200
0.01851321	125.590000	2.512200
0.01852480	131.600000	2.590400
0.01853652	131.600000	2.590400
0.01854811	131.600000	2.590400
0.01855955	141.690000	2.772700
0.01857120	141.690000	2.772700
0.01858266	141.690000	2.772700
0.01859420	4.290000	0.044900
0.01860582	4.290000	0.044900
0.01861751	4.500000	0.128800
0.01862899	4.500000	0.128800
0.01864057	4.500000	0.128800
0.01865222	4.500000	0.128800
0.01866378	125.810000	2.399800
0.01867531	125.810000	2.399800
0.01868699	125.810000	2.399800
0.01869845	145.190000	2.705700
0.01870986	145.190000	2.705700
0.01872175	145.190000	2.705700
0.01873338	145.190000	2.705700
0.01874471	145.190000	2.705700
0.01875722	145.190000	2.705700
0.01876773	44.130000	1.315400
0.01877929	44.130000	1.315400
0.01879111	44.130000	1.315400
0.01880279	3.860000	0.043000
0.01881451	3.860000	0.043000
0.01882615	3.860000	0.043000
0.01883784	139.680000	2.696100
0.01884977	139.680000	2.696100
0.01886110	139.680000	2.696100
0.01887241	132.960000	2.621400
0.01888399	132.960000	2.621400
0.01889566	132.960000	2.621400
0.01890737	130.530000	2.575400
0.01891891	130.530000	2.575400
0.01893068	130.530000	2.575400
0.01894226	133.680000	2.623300
0.01895392	133.680000	2.623300
0.01896561	133.680000	2.623300
0.01897736	4.220000	0.044700
0.01898894	4.220000	0.044700
0.01900039	4.220000	0.044700
0.01901198	13.080000	0.576800
0.01902366	13.080000	0.576800
0.01903514	13.080000	0.576800
0.01904671	131.670000	2.492700
0.01905826	131.670000	2.492700
0.01906970	131.670000	2.492700
0.01908127	133.320000	2.522800
0.01909309	133.320000	2.522800
0.01910470	136.820000	2.592300
0.01911625	136.820000	2.592300
0.01912787	136.820000	2.592300
0.01913942	136.820000	2.592300
0.01915101	7.860000	0.416100
0.01916258	7.860000	0.416100
0.01917406	7.860000	0.416100
0.01918564	3.860000	0.043200
0.01919742	3.860000	0.043200
0.01920877	3.860000	0.043200
0.01922061	145.760000	2.789500
0.01923205	145.760000	2.789500
0.01924351	145.760000	2.789500
0.01925514	132.530000	2.595900
0.01926644	132.530000	2.595900
0.01927838	138.400000	2.683700
0.01929010	138.400000	2.683700
0.01930177	138.400000	2.683700
0.01931309	138.400000	2.683700
0.01932481	128.450000	2.530000
0.01933626	128.450000	2.530000
0.01934788	128.450000	2.530000
0.01935941	3.930000	0.043600
0.01937118	3.930000	0.043600
0.01938267	3.930000	0.043600
0.01939422	50.420000	1.629400
0.01940560	50.420000	1.629400
0.01941726	50.420000	1.629400
0.01942883	123.880000	2.404600
0.01944039	123.880000	2.404600
0.01945200	123.880000	2.404600
0.01946350	123.880000	2.404600
0.01947539	123.880000	2.404600
0.01948679	123.880000	2.404600
0.01949843	131.390000	2.494000
0.01950999	131.390000	2.494000
0.01952168	131.390000	2.494000
0.01953338	95.340000	2.106800
0.01954457	95.340000	2.106800
0.01955656	95.340000	2.106800
0.01956785	4.000000	0.043600
0.01957944	4.000000	0.043600
0.01959100	141.690000	2.768600
0.01960250	141.690000	2.768600
0.01961405	141.690000	2.768600
0.01962568	141.690000	2.768600
0.01963745	131.100000	2.582900
0.01964872	131.100000	2.582900
0.01966043	131.100000	2.582900
0.01967200	136.970000	2.679400
0.01968353	136.970000	2.679400
0.01969506	136.970000	2.679400
0.01970676	139.760000	2.709800
0.01971830	139.760000	2.709800
0.01972981	139.760000	2.709800
0.01974139	3.860000	0.043000
0.01975319	3.860000	0.043000
0.01976463	92.190000	2.174700
0.01977624	92.190000	2.174700
0.01978778	92.190000	2.174700
0.01979932	92.190000	2.174700
0.01981088	125.520000	2.399600
0.01982237	125.520000	2.399600
0.01983400	125.520000	2.399600
0.01984569	136.970000	2.573000
0.01985726	136.970000	2.573000
0.01986897	136.970000	2.573000
0.01988061	137.110000	2.581800
0.01989214	137.110000	2.581800
0.01990368	137.110000	2.581800
0.01991512	48.850000	1.434000
0.01992679	48.850000	1.434000
0.01993841	7.510000	0.360400
0.01994984	7.510000	0.360400
0.01996140	7.510000	0.360400
0.01997306	7.510000	0.360400
0.01998486	137.820000	2.694300
0.01999618	137.820000	2.694300
0.02000819	137.820000	2.694300
0.02001942	131.170000	2.590300
0.02003116	131.170000	2.590300
0.02004250	131.170000	2.590300
0.02005441	125.240000	2.502300
0.02006610	125.240000	2.502300
0.02007773	125.590000	2.506200
0.02008919	125.590000	2.506200
0.02010083	125.590000	2.506200
0.02011250	4.290000	0.045000
0.02012421	4.290000	0.045000
0.02013616	4.290000	0.045000
0.02014741	4.290000	0.045000
0.02015929	131.890000	2.584600
0.02017046	131.890000	2.584600
0.02018233	131.890000	2.584600
0.02019366	131.890000	2.584600
0.02020546	131.890000	2.584600
0.02021688	131.890000	2.584600
0.02022852	136.040000	2.613400
0.02024012	136.040000	2.613400
0.02025170	126.310000	2.445300
0.02026326	126.310000	2.445300
0.02027484	126.310000	2.445300
0.02028633	126.310000	2.445300
0.02029785	4.290000	0.045300
0.02030964	4.290000	0.045300
0.02032101	4.290000	0.045300
0.02033256	3.860000	0.043100
0.02034431	3.860000	0.043100
0.02035567	3.860000	0.043100
0.02036722	122.590000	2.499300
0.02037885	122.590000	2.499300
0.02039060	122.590000	2.499300
0.02040230	131.030000	2.583600
0.02041360	131.030000	2.583600
0.02042509	132.170000	2.609000
0.02043681	132.170000	2.609000
0.02044843	132.170000	2.609000
0.02046017	132.170000	2.609000
0.02047161	76.670000	1.917400
0.02048301	76.670000	1.917400
0.02049484	76.670000	1.917400
0.02050630	3.790000	0.042900
0.02051781	3.790000	0.042900
0.02052941	3.790000	0.042900
0.02054124	77.170000	1.878100
0.02055277	77.170000	1.878100
0.02056457	125.810000	2.451300
0.02057609	125.810000	2.451300
0.02058756	125.810000	2.451300
0.02059898	140.470000	2.682300
0.02061065	140.470000	2.682300
0.02062219	140.470000	2.682300
0.02063374	140.470000	2.682300
0.02064529	129.100000	2.490100
0.02065692	129.100000	2.490100
0.02066843	129.100000	2.490100
0.02068001	4.220000	0.044600
0.02069162	4.220000	0.044600
0.02070322	4.220000	0.044600
0.02071495	5.570000	0.221400
0.02072635	5.570000	0.221400
0.02073793	136.540000	2.673700
0.02074953	136.540000	2.673700
0.02076105	136.540000	2.673700
0.02077260	136.540000	2.673700
0.02078416	139.330000	2.727500
0.02079579	139.330000	2.727500
0.02080747	139.330000	2.727500
0.02081907	127.600000	2.559100
0.02083072	127.600000	2.559100
0.02084234	127.600000	2.559100
0.02085381	37.330000	1.338500
0.02086543	37.330000	1.338500
0.02087677	37.330000	1.338500
0.02088860	3.790000	0.043100
0.02090015	3.790000	0.043100
0.02091161	3.790000	0.043100
0.02092325	3.790000	0.043100
0.02093476	3.790000	0.043100
0.02094640	3.790000	0.043100
0.02095802	131.460000	2.559700
0.02096959	131.460000	2.559700
0.02098102	131.460000	2.559700
0.02099263	144.910000	2.749500
0.02100437	144.910000	2.749500
0.02101574	144.910000	2.749500
0.02102733	4.290000	0.045200
0.02103910	4.290000	0.045200
0.02105071	139.680000	2.688000
0.02106204	139.680000	2.688000
0.02107366	139.680000	2.688000
0.02108510	155.560000	2.680900
0.02109708	155.560000	2.680900
0.02110850	155.560000	2.680900
0.02112005	155.560000	2.680900
0.02113148	146.410000	2.561500
0.02114317	146.410000	2.561500
0.02115470	146.410000	2.561500
0.02116631	117.650000	2.217000
0.02117778	117.650000	2.217000
0.02118928	117.650000	2.217000
0.02120088	22.170000	0.113600
0.02121259	22.170000	0.113600
0.02122476	22.100000	0.113400
0.02123560	22.100000	0.113400
0.02124718	22.100000	0.113400
0.02125889	117.940000	2.196800
0.02127043	117.940000	2.196800
0.02128198	117.940000	2.196800
0.02129380	117.940000	2.196800
0.02130512	107.070000	2.060300
0.02131661	107.070000	2.060300
0.02132858	107.070000	2.060300
0.02134038	98.270000	1.990500
0.02135152	98.270000	1.990500
0.02136326	98.270000	1.990500
0.02137456	13.940000	0.091200
0.02138634	13.940000	0.091200
0.02139791	13.080000	0.088900
0.02140973	13.080000	0.088900
0.02142127	13.080000	0.088900
0.02143265	13.080000	0.088900
0.02144426	25.960000	0.819800
0.02145575	25.960000	0.819800
0.02146738	25.960000	0.819800
0.02147911	92.330000	1.899400
0.02149058	92.330000	1.899400
0.02150219	92.330000	1.899400
0.02151366	82.460000	1.721900
0.02152508	82.460000	1.721900
0.02153672	91.400000	1.867500
0.02154839	91.400000	1.867500
0.02156013	91.400000	1.867500
0.02157142	21.950000	0.596200
0.02158321	21.950000	0.596200
0.02159481	21.950000	0.596200
0.02160627	21.950000	0.596200
0.02161800	88.470000	1.785600
0.02162980	88.470000	1.785600
0.02164116	88.470000	1.785600
0.02165292	88.470000	1.785600
0.02166441	88.470000	1.785600
0.02167610	88.470000	1.785600
0.02168749	35.690000	0.732300
0.02169917	35.690000	0.732300
0.02171087	40.910000	0.853000
0.02172241	40.910000	0.853000
0.02173404	40.910000	0.853000
0.02174552	35.830000	0.760700
0.02175714	35.830000	0.760700
0.02176869	35.830000	0.760700
0.02178039	35.830000	0.760700
0.02179175	35.400000	0.756600
0.02180363	35.400000	0.756600
0.02181497	35.400000	0.756600
0.02182738	22.950000	0.486600
0.02183802	22.950000	0.486600
0.02184978	22.950000	0.486600
0.02186133	14.010000	0.091200
0.02187292	14.010000	0.091200
0.02188456	21.740000	0.669900
0.02189605	21.740000	0.669900
0.02190760	21.740000	0.669900
0.02191929	63.220000	1.436600
0.02193105	63.220000	1.436600
0.02194271	63.220000	1.436600
0.02195405	63.220000	1.436600
0.02196569	77.670000	1.729400
0.02197734	77.670000	1.729400
0.02198905	77.670000	1.729400
0.02200089	69.370000	1.573400
0.02201212	69.370000	1.573400
0.02202373	66.660000	1.573400
0.02203556	66.660000	1.536700
0.02204679	66.660000	1.536700
0.02205873	4.140000	0.044200
0.02206987	4.140000	0.044200
0.02208156	4.140000	0.044200
0.02209303	4.140000	0.044200
0.02210471	74.380000	1.658400
0.02211623	74.380000	1.658400
0.02212792	74.380000	1.658400
0.02213947	48.990000	1.139000
0.02215089	48.990000	1.139000
0.02216258	48.990000	1.139000
0.02217410	27.960000	0.716300
0.02218569	27.960000	0.716300
0.02219752	29.030000	0.718100
0.02220919	29.030000	0.718100
0.02222056	29.030000	0.718100
0.02223229	25.170000	0.633000
0.02224396	25.170000	0.633000
0.02225544	25.170000	0.633000
0.02226699	25.170000	0.633000
0.02227858	27.170000	0.696800
0.02228997	27.170000	0.696800
0.02230201	27.170000	0.696800
0.02231332	26.030000	0.678000
0.02232486	26.030000	0.678000
0.02233632	26.030000	0.678000
0.02234807	24.530000	0.651400
0.02235968	24.530000	0.651400
0.02237112	24.530000	0.651400
0.02238273	24.530000	0.651400
0.02239426	24.530000	0.651400
0.02240583	16.660000	0.198500
0.02241769	16.660000	0.198500
0.02242939	16.660000	0.198500
0.02244046	16.660000	0.198500
0.02245223	19.450000	0.193000
0.02246384	19.450000	0.193000
0.02247541	19.450000	0.193000
0.02248696	15.800000	0.195200
0.02249865	15.800000	0.195200
0.02251013	15.800000	0.195200
0.02252176	32.400000	0.679200
0.02253351	32.400000	0.679200
0.02254492	34.400000	0.723900
0.02255645	34.400000	0.723900
0.02256811	34.400000	0.723900
0.02257956	34.610000	0.729600
0.02259111	34.610000	0.729600
0.02260292	34.610000	0.729600
0.02261443	34.610000	0.729600
0.02262597	34.680000	0.735900
0.02263743	34.680000	0.735900
0.02264902	34.680000	0.735900
0.02266062	32.610000	0.705000
0.02267214	32.610000	0.705000
0.02268391	32.320000	0.704400
0.02269567	32.320000	0.704400
0.02270699	32.320000	0.704400
0.02271867	32.830000	0.710200
0.02273032	32.830000	0.710200
0.02274161	32.830000	0.710200
0.02275368	32.830000	0.710200
0.02276507	175.450000	1.789400
0.02277672	175.450000	1.789400
0.02278832	175.450000	1.789400
0.02279983	67.010000	0.862600
0.02281140	67.010000	0.862600
0.02282296	67.010000	0.862600
0.02283450	66.870000	0.856600
0.02284591	66.870000	0.856600
0.02285777	66.510000	0.856000
0.02286914	66.510000	0.856000
0.02288063	66.510000	0.856000
0.02289229	65.370000	0.846100
0.02290398	65.370000	0.846100
0.02291549	65.370000	0.846100
0.02292694	65.370000	0.846100
0.02293850	65.370000	0.848100
0.02295009	65.370000	0.848100
0.02296166	65.370000	0.848100
0.02297332	64.300000	0.839000
0.02298561	64.300000	0.839000
0.02299642	64.300000	0.839000
0.02300807	63.580000	0.834400
0.02301963	63.580000	0.834400
0.02303115	70.660000	0.894800
0.02304277	70.660000	0.894800
0.02305439	70.660000	0.894800
0.02306583	114.220000	1.123300
0.02307756	114.220000	1.123300
0.02308885	114.220000	1.123300
0.02310071	114.220000	1.123300
0.02311223	114.220000	1.123300
0.02312366	114.220000	1.123300
0.02313538	114.220000	1.123300
0.02314700	139.830000	1.157900
0.02315851	139.830000	1.157900
0.02317003	153.270000	1.156600
0.02318174	153.270000	1.156600
0.02319319	153.270000	1.156600
0.02320493	165.000000	1.160000
0.02321656	165.000000	1.160000
0.02322775	165.000000	1.160000
0.02324036	175.880000	1.164400
0.02325122	175.880000	1.164400
0.02326281	175.880000	1.164400
0.02327463	175.880000	1.164400
0.02328613	149.270000	1.014800
0.02329769	149.270000	1.014800
0.02330929	149.270000	1.014800
0.02332098	131.460000	0.942500
0.02333240	131.460000	0.942500
0.02334382	131.460000	0.943800
0.02335549	131.460000	0.943800
0.02336711	131.460000	0.943800
0.02337874	131.600000	0.945400
0.02339050	131.600000	0.945400
0.02340201	131.600000	0.945400
0.02341344	131.600000	0.945400
0.02342494	130.820000	0.942100
0.02343645	130.820000	0.942100
0.02344836	130.820000	0.942100
0.02345987	131.460000	0.945100
0.02347138	131.460000	0.945100
0.02348282	131.460000	0.945100
0.02349436	130.310000	0.940500
0.02350605	130.310000	0.940500
0.02351760	129.100000	0.935200
0.02352902	129.100000	0.935200
0.02354074	129.100000	0.935200
0.02355247	130.100000	0.939300
0.02356406	130.100000	0.939300
0.02357546	130.100000	0.939300
0.02358720	130.100000	0.939300
0.02359861	130.670000	0.941700
0.02361034	130.670000	0.941700
0.02362196	130.670000	0.941700
0.02363375	130.240000	0.940200
0.02364525	130.240000	0.940200
0.02365689	131.030000	0.943100
0.02366825	131.030000	0.943100
0.02368005	131.030000	0.943100
0.02369189	131.030000	0.942600
0.02370319	131.030000	0.942600
0.02371469	131.030000	0.942600
0.02372620	130.960000	0.942300
0.02373792	130.960000	0.942300
0.02374932	130.960000	0.942300
0.02376098	130.960000	0.942300
0.02377258	21.520000	0.271400
0.02378406	21.520000	0.271400
0.02379582	21.520000	0.271400
0.02380749	23.530000	0.320600
0.02381902	23.530000	0.320600
0.02383049	23.530000	0.320600
0.02384223	23.530000	0.320600
0.02385405	23.530000	0.320600
0.02386549	222.580000	1.514100
0.02387734	222.580000	1.514100
0.02388872	222.580000	1.514100
0.02390072	139.180000	0.973100
0.02391236	139.180000	0.973100
0.02392384	139.180000	0.973100
0.02393551	139.180000	0.973100
0.02394727	126.380000	0.921300
0.02395897	126.380000	0.921300
0.02397027	126.380000	0.921300
0.02398213	128.380000	0.931000
0.02399368	128.380000	0.931000
0.02400507	129.240000	0.934600
0.02401667	129.240000	0.934600
0.02402823	129.240000	0.934600
0.02403980	129.600000	0.935800
0.02405141	129.600000	0.935800
0.02406309	129.600000	0.935800
0.02407475	129.530000	0.934800
0.02408637	129.530000	0.934800
0.02409794	129.530000	0.934800
0.02410951	129.530000	0.934800
0.02412132	131.030000	0.940500
0.02413301	131.030000	0.940500
0.02414502	130.460000	0.940500
0.02415633	130.460000	0.937700
0.02416866	130.460000	0.937700
0.02417992	130.670000	0.938300
0.02419142	130.670000	0.938300
0.02420296	130.670000	0.938300
0.02421479	131.600000	0.942200
0.02422616	131.600000	0.942200
0.02423769	131.600000	0.942200
0.02424941	130.740000	0.939300
0.02426091	130.740000	0.939300
0.02427269	130.740000	0.939300
0.02428409	130.740000	0.939300
0.02429574	131.960000	0.943000
0.02430740	131.960000	0.943000
0.02431911	130.390000	0.936000
0.02433104	130.390000	0.936000
0.02434235	130.390000	0.936000
0.02435378	131.390000	0.940200
0.02436541	131.390000	0.940200
0.02437699	131.390000	0.940200
0.02438848	132.750000	0.944500
0.02440016	132.750000	0.944500
0.02441176	132.750000	0.944500
0.02442319	132.750000	0.944500
0.02443503	131.600000	0.940900
0.02444652	131.600000	0.940900
0.02445806	131.600000	0.940900
0.02446951	122.520000	0.845200
0.02448128	122.520000	0.845200
0.02449275	124.160000	0.852000
0.02450431	124.160000	0.852000
0.02451583	124.160000	0.852000
0.02452748	123.160000	0.849800
0.02453912	123.160000	0.849800
0.02455053	123.160000	0.849800
0.02456214	123.160000	0.849800
0.02457375	123.160000	0.849800
0.02458529	123.160000	0.849800
0.02459699	123.160000	0.849800
0.02460850	124.950000	0.855400
0.02461999	124.950000	0.855400
0.02463155	122.950000	0.849100
0.02464322	122.950000	0.849100
0.02465478	122.950000	0.849100
0.02466660	124.950000	0.856100
0.02467817	124.950000	0.856100
0.02468980	124.950000	0.856100
0.02470095	125.240000	0.857200
0.02471252	125.240000	0.857200
0.02472431	125.240000	0.857200
0.02473572	123.160000	0.850500
0.02474728	123.160000	0.850500
0.02475899	123.160000	0.850500
0.02477049	123.160000	0.850500
0.02478225	123.380000	0.851100
0.02479366	123.380000	0.851100
0.02480522	23.880000	0.298400
0.02481706	23.880000	0.298400
0.02482911	23.880000	0.298400
0.02484034	16.020000	0.168100
0.02485211	16.020000	0.168100
0.02486539	16.020000	0.168100
0.02487492	16.090000	0.175300
0.02488630	16.090000	0.175300
0.02489800	16.090000	0.175300
0.02490933	16.090000	0.175300
0.02492088	14.160000	0.092100
0.02493251	14.160000	0.092100
0.02494398	14.160000	0.092100
0.02495574	14.230000	0.092000
0.02496777	14.230000	0.092000
0.02497922	14.300000	0.092400
0.02499080	14.300000	0.092400
0.02500252	14.300000	0.092400
0.02501427	14.230000	0.092200
0.02502582	14.230000	0.092200
0.02503727	14.230000	0.092200
0.02504899	14.300000	0.092200
0.02506059	14.300000	0.092200
0.02507211	14.300000	0.092200
0.02508374	14.300000	0.092200
0.02509509	13.730000	0.090600
0.02510682	13.730000	0.090600
0.02511846	13.730000	0.090400
0.02513013	13.730000	0.090400
0.02514174	13.730000	0.090400
0.02515319	6.000000	0.057200
0.02516501	6.000000	0.057200
0.02517650	6.000000	0.057200
0.02518841	42.910000	1.002200
0.02519997	42.910000	1.002200
0.02521146	42.910000	1.002200
0.02522308	55.570000	1.156100
0.02523457	55.570000	1.156100
0.02524618	55.570000	1.156100
0.02525799	55.570000	1.156100
0.02526932	38.120000	0.875200
0.02528098	38.120000	0.875200
0.02529243	38.120000	0.875200
0.02530455	38.120000	0.875200
0.02531547	38.120000	0.875200
0.02532744	4.570000	0.043600
0.02533882	4.570000	0.043600
0.02535049	4.570000	0.043600
0.02536231	38.760000	1.208000
0.02537389	38.760000	1.208000
0.02538527	38.760000	1.208000
0.02539704	53.710000	1.220000
0.02540874	53.710000	1.220000
0.02542006	53.710000	1.220000
0.02543185	53.710000	1.220000
0.02544328	55.070000	1.242500
0.02545487	55.070000	1.242500
0.02546645	10.940000	0.051400
0.02547797	10.940000	0.051400
0.02548956	10.940000	0.051400
0.02550106	10.580000	0.049400
0.02551275	10.580000	0.049400
0.02552426	10.580000	0.049400
0.02553631	11.650000	0.167800
0.02554753	11.650000	0.167800
0.02555909	11.650000	0.167800
0.02557097	60.150000	1.286200
0.02558218	60.150000	1.286200
0.02559392	60.150000	1.286200
0.02560554	60.720000	1.297600
0.02561713	60.720000	1.297600
0.02562889	60.720000	1.297600
0.02564060	27.680000	0.780400
0.02565206	27.680000	0.780400
0.02566373	27.680000	0.780400
0.02567529	10.580000	0.049400
0.02568696	10.580000	0.049400
0.02569840	10.580000	0.049400
0.02570998	10.580000	0.049400
0.02572170	10.580000	0.049400
0.02573356	10.580000	0.049400
0.02574519	99.060000	2.093900
0.02575686	99.060000	2.093900
0.02576858	99.060000	2.093900
0.02578006	79.530000	1.682200
0.02579160	79.530000	1.682200
0.02580319	79.530000	1.682200
0.02581466	91.550000	1.898000
0.02582628	91.550000	1.898000
0.02583793	91.550000	1.898000
0.02584963	10.940000	0.052300
0.02586095	10.940000	0.052300
0.02587260	10.940000	0.052300
0.02588413	10.580000	0.050100
0.02589576	10.580000	0.050100
0.02590747	10.580000	0.050100
0.02591948	10.580000	0.050100
0.02593041	22.380000	0.701100
0.02594211	22.380000	0.701100
0.02595368	115.870000	2.239000
0.02596515	115.870000	2.239000
0.02597683	115.870000	2.239000
0.02598831	111.150000	2.168600
0.02599990	111.150000	2.168600
0.02601153	111.150000	2.168600
0.02602328	111.150000	2.168600
0.02603457	111.150000	2.168600
0.02604624	111.150000	2.168600
0.02605894	10.580000	0.050000
0.02606959	10.580000	0.050000
0.02608109	10.580000	0.050000
0.02609274	10.510000	0.049800
0.02610424	10.510000	0.049800
0.02611591	10.510000	0.049800
0.02612749	134.460000	2.595900
0.02613892	134.460000	2.595900
0.02615065	134.460000	2.595900
0.02616238	142.470000	2.705600
0.02617382	142.470000	2.705600
0.02618559	142.470000	2.705600
0.02619731	135.750000	2.610900
0.02620884	135.750000	2.610900
0.02622089	135.750000	2.610900
0.02623226	10.580000	0.049900
0.02624397	10.580000	0.049900
0.02625579	10.580000	0.049900
0.02626699	10.510000	0.049800
0.02627868	10.510000	0.049800
0.02629016	10.510000	0.049800
0.02630176	84.470000	1.992900
0.02631326	84.470000	1.992900
0.02632492	84.470000	1.992900
0.02633638	140.190000	2.677900
0.02634807	140.190000	2.677900
0.02635962	140.190000	2.677900
0.02637127	155.710000	2.868900
0.02638280	155.710000	2.868900
0.02639443	11.010000	0.052900
0.02640606	11.010000	0.052900
0.02641757	11.010000	0.052900
0.02642955	11.010000	0.052900
0.02644102	10.510000	0.050000
0.02645255	10.510000	0.050000
0.02646429	10.510000	0.050000
0.02647616	10.510000	0.049800
0.02648748	10.510000	0.049800
0.02649896	10.510000	0.049800
0.02651201	119.160000	2.381800
0.02652218	119.160000	2.381800
0.02653406	119.160000	2.381800
0.02654527	4.360000	0.045400
0.02655679	4.360000	0.045400
0.02656865	46.560000	1.463300
0.02657995	46.560000	1.463300
0.02659157	46.560000	1.463300
0.02660316	46.560000	1.463300
0.02661476	108.710000	2.259800
0.02662652	108.710000	2.259800
0.02663787	108.710000	2.259800
0.02664985	110.650000	2.301700
0.02666119	110.650000	2.301700
0.02667271	110.650000	2.301700
0.02668435	4.070000	0.044200
0.02669608	4.070000	0.044200
0.02670755	4.070000	0.044200
0.02671921	3.860000	0.043100
0.02673079	3.860000	0.043100
0.02674225	4.430000	0.107600
0.02675404	4.430000	0.107600
0.02676560	4.430000	0.107600
0.02677718	4.430000	0.107600
0.02678859	116.370000	2.422700
0.02680035	116.370000	2.422700
0.02681203	116.370000	2.422700
0.02682380	131.820000	2.673600
0.02683500	131.820000	2.673600
0.02684664	131.820000	2.673600
0.02685824	38.260000	1.311500
0.02686976	38.260000	1.311500
0.02688120	3.860000	1.311500
0.02689300	3.860000	0.043100
0.02690458	3.860000	0.043100
0.02691618	3.860000	0.043100
0.02692801	3.790000	0.043000
0.02693926	3.790000	0.043000
0.02695082	3.790000	0.043000
0.02696235	87.690000	2.085400
0.02697403	87.690000	2.085400
0.02698574	87.690000	2.085400
0.02699716	134.180000	2.684400
0.02700872	134.180000	2.684400
0.02702031	134.180000	2.684400
0.02703186	116.370000	2.385600
0.02704341	116.370000	2.385600
0.02705508	3.860000	0.043000
0.02706655	3.860000	0.043000
0.02707823	3.860000	0.043000
0.02708983	3.860000	0.043000
0.02710145	3.790000	0.042700
0.02711292	3.790000	0.042700
0.02712479	3.790000	0.042700
0.02713632	16.370000	0.772900
0.02714822	16.370000	0.772900
0.02715984	16.370000	0.772900
0.02717113	122.590000	2.545900
0.02718304	122.590000	2.545900
0.02719447	122.590000	2.545900
0.02720596	105.210000	2.264100
0.02721834	105.210000	2.264100
0.02722924	4.220000	0.044600
0.02724068	4.220000	0.044600
0.02725256	4.220000	0.044600
0.02726383	4.220000	0.044600
0.02727541	3.790000	0.042700
0.02728699	3.790000	0.042700
0.02729847	3.790000	0.042700
0.02731013	3.860000	0.043200
0.02732178	3.860000	0.043200
0.02733336	3.860000	0.043200
0.02734507	110.070000	2.320300
0.02735666	110.070000	2.320300
0.02736804	110.070000	2.320300
0.02737946	106.780000	2.254200
0.02739133	106.780000	2.254200
0.02740274	106.780000	2.254200
0.02741433	82.390000	2.004400
0.02742584	82.390000	2.004400
0.02743751	82.390000	2.004400
0.02744899	3.790000	0.042600
0.02746057	3.790000	0.042600
0.02747240	3.790000	0.042600
0.02748418	3.790000	0.042800
0.02749573	3.790000	0.042800
0.02750715	3.790000	0.042800
0.02751898	46.700000	1.511400
0.02753076	46.700000	1.511400
0.02754248	113.080000	2.413400
0.02755384	113.080000	2.413400
0.02756557	113.080000	2.413400
0.02757722	93.120000	2.073200
0.02758883	93.120000	2.073200
0.02760039	93.120000	2.073200
0.02761201	93.120000	2.073200
0.02762354	4.000000	0.043800
0.02763515	4.000000	0.043800
0.02764676	4.000000	0.043800
0.02765833	3.790000	0.042700
0.02767008	3.790000	0.042700
0.02768172	3.790000	0.042700
0.02769347	3.790000	0.042800
0.02770520	3.790000	0.042800
0.02771650	105.570000	2.244900
0.02772819	105.570000	2.244900
0.02773975	105.570000	2.244900
0.02775137	105.420000	2.224000
0.02776289	105.420000	2.224000
0.02777456	105.420000	2.224000
0.02778623	105.420000	2.224000
0.02779777	108.140000	2.264600
0.02780991	108.140000	2.264600
0.02782105	108.140000	2.264600
0.02783244	3.790000	0.042700
0.02784417	3.790000	0.042700
0.02785566	3.790000	0.042700
0.02786731	3.790000	0.042800
0.02787892	3.790000	0.042800
0.02789031	5.140000	0.144100
0.02790250	5.140000	0.144100
0.02791385	5.140000	0.144100
0.02792532	5.140000	0.144100
0.02793682	104.060000	2.273700
0.02794844	104.060000	2.273700
0.02796014	104.060000	2.273700
0.02797171	116.800000	2.461900
0.02798323	116.800000	2.461900
0.02799485	116.800000	2.461900
0.02800649	29.820000	1.108200
0.02801824	29.820000	1.108200
0.02802970	3.790000	1.108200
0.02804118	3.790000	0.042700
0.02805291	3.790000	0.042700
0.02806463	3.860000	0.042900
0.02807583	3.860000	0.042900
0.02808774	3.860000	0.042900
0.02809936	3.860000	0.042900
0.02811093	114.010000	2.473900
0.02812258	114.010000	2.473900
0.02813420	114.010000	2.473900
0.02814611	118.230000	2.436300
0.02815752	118.230000	2.436300
0.02816928	118.230000	2.436300
0.02818062	111.290000	2.324300
0.02819252	111.290000	2.324300
0.02820400	3.860000	0.043000
0.02821560	3.860000	0.043000
0.02822756	3.860000	0.043000
0.02823902	3.790000	0.042800
0.02825050	3.790000	0.042800
0.02826206	3.790000	0.042800
0.02827396	3.790000	0.042800
0.02828517	14.440000	0.684700
0.02829679	14.440000	0.684700
0.02830894	14.440000	0.684700
0.02832057	111.360000	2.391300
0.02833238	111.360000	2.391300
0.02834380	111.360000	2.391300
0.02835562	110.720000	2.397700
0.02836728	110.720000	2.397700
0.02837855	4.290000	0.044900
0.02839030	4.290000	0.044900
0.02840191	4.290000	0.044900
0.02841341	3.790000	0.043000
0.02842501	3.790000	0.043000
0.02843663	3.790000	0.043000
0.02844817	3.790000	0.043000
0.02845987	3.860000	0.043200
0.02847142	3.860000	0.043200
0.02848296	3.860000	0.043200
0.02849453	103.490000	2.246500
0.02850616	103.490000	2.246500
0.02851771	103.490000	2.246500
0.02852906	99.990000	2.128700
0.02854081	99.990000	2.128700
0.02855245	67.940000	1.784600
0.02856385	67.940000	1.784600
0.02857556	67.940000	1.784600
0.02858706	3.860000	0.043100
0.02859869	3.860000	0.043100
0.02861027	3.860000	0.043100
0.02862181	3.860000	0.043100
0.02863358	3.790000	0.043100
0.02864521	3.790000	0.043100
0.02865650	3.790000	0.043100
0.02866818	60.150000	1.773200
0.02867963	60.150000	1.773200
0.02869138	107.780000	2.312800
0.02870273	107.780000	2.312800
0.02871457	107.780000	2.312800
0.02872589	63.800000	1.710200
0.02873757	63.800000	1.710200
0.02874927	63.800000	1.710200
0.02876075	3.860000	0.043000
0.02877220	3.860000	0.043000
0.02878403	3.860000	0.043000
0.02879566	3.860000	0.043000
0.02880691	3.860000	0.043000
0.02881899	3.860000	0.043000
0.02883007	3.860000	0.043000
0.02884184	66.230000	1.765700
0.02885367	66.230000	1.765700
0.02886580	101.420000	2.195700
0.02887735	101.420000	2.195700
0.02888809	101.420000	2.195700
0.02889938	92.840000	2.048500
0.02891141	92.840000	2.048500
0.02892273	92.840000	2.048500
0.02893421	92.840000	2.048500
0.02894580	4.140000	0.044500
0.02895745	4.140000	0.044500
0.02896897	4.140000	0.044500
0.02898043	3.860000	0.042900
0.02899218	3.860000	0.042900
0.02900370	3.790000	0.042900
0.02901542	3.790000	0.043100
0.02902692	3.790000	0.043100
0.02903837	118.580000	2.475000
0.02905015	118.580000	2.475000
0.02906213	118.580000	2.475000
0.02907312	108.640000	2.333200
0.02908462	108.640000	2.333200
0.02909645	108.640000	2.333200
0.02910799	108.640000	2.333200
0.02911971	106.140000	2.303700
0.02913113	106.140000	2.303700
0.02914279	106.140000	2.303700
0.02915458	3.790000	0.042700
0.02916572	3.790000	0.042700
0.02917744	3.790000	0.042800
0.02918907	3.790000	0.042800
0.02920063	3.790000	0.042800
0.02921245	16.800000	0.745300
0.02922398	16.800000	0.745300
0.02923558	16.800000	0.745300
0.02924700	119.510000	2.495500
0.02925868	119.510000	2.495500
0.02927060	119.510000	2.495500
0.02928205	119.510000	2.495500
0.02929353	123.230000	2.503200
0.02930515	123.230000	2.503200
0.02931701	123.230000	2.503200
0.02932888	4.360000	0.045400
0.02934101	4.360000	0.045400
0.02935267	3.710000	0.042500
0.02936383	3.710000	0.042500
0.02937531	3.710000	0.042500
0.02938703	3.790000	0.042600
0.02939906	3.790000	0.042600
0.02941001	3.790000	0.042600
0.02942162	122.230000	2.560900
0.02943328	122.230000	2.560900
0.02944481	122.230000	2.560900
0.02945632	122.230000	2.560900
0.02946803	110.570000	2.365700
0.02947975	110.570000	2.365700
0.02949149	110.570000	2.365700
0.02950300	59.360000	1.612700
0.02951439	59.360000	1.612700
0.02952647	3.710000	0.042500
0.02953773	3.710000	0.042500
0.02954911	3.710000	0.042500
0.02956090	3.710000	0.042500
0.02957230	3.710000	0.042500
0.02958493	3.710000	0.042500
0.02959552	48.200000	1.444100
0.02960737	48.200000	1.444100
0.02961862	48.200000	1.444100
0.02963023	48.200000	1.444100
0.02964203	105.140000	2.245700
0.02965341	105.140000	2.245700
0.02966487	109.140000	2.346200
0.02967642	109.140000	2.346200
0.02968811	109.140000	2.346200
0.02969983	4.220000	0.044700
0.02971134	4.220000	0.044700
0.02972319	4.220000	0.044700
0.02973443	3.710000	0.042600
0.02974601	3.710000	0.042600
0.02975752	3.710000	0.042600
0.02976903	3.710000	0.042600
0.02978086	5.290000	0.202800
0.02979228	5.290000	0.202800
0.02980398	5.290000	0.202800
0.02981543	4.140000	0.044600
0.02982767	4.140000	0.044600
0.02983850	150.630000	2.645600
0.02985054	150.630000	2.645600
0.02986185	150.630000	2.645600
0.02987332	157.210000	2.738400
0.02988473	157.210000	2.738400
0.02989641	157.210000	2.738400
0.02990797	177.590000	3.025900
0.02991972	177.590000	3.025900
0.02993128	177.590000	3.025900
0.02994285	177.590000	3.025900
0.02995447	23.170000	0.117800
0.02996627	23.170000	0.117800
0.02997773	23.170000	0.117800
0.02999117	22.670000	0.115700
0.03000141	22.670000	0.115700
0.03001289	26.670000	0.443600
0.03002455	26.670000	0.443600
0.03003720	26.670000	0.443600
0.03004819	141.400000	2.506200
0.03005973	141.400000	2.506200
0.03007142	141.400000	2.506200
0.03008306	138.540000	2.463700
0.03009468	138.540000	2.463700
0.03010645	138.540000	2.463700
0.03011784	138.540000	2.463700
0.03012931	106.570000	2.017400
0.03014098	106.570000	2.017400
0.03015257	22.810000	0.116600
0.03016404	22.810000	0.116600
0.03017566	22.810000	0.116600
0.03018713	22.670000	0.115900
0.03019875	22.670000	0.115900
0.03021031	22.670000	0.115900
0.03022185	127.530000	2.403600
0.03023350	127.530000	2.403600
0.03024499	127.530000	2.403600
0.03025668	95.980000	1.881200
0.03026852	95.980000	1.881200
0.03027993	95.980000	1.881200
0.03029145	95.980000	1.881200
0.03030329	90.690000	1.848600
0.03031492	90.690000	1.848600
0.03032678	52.640000	1.355300
0.03033837	52.640000	1.355300
0.03034971	52.640000	1.355300
0.03036133	13.370000	0.090400
0.03037285	13.370000	0.090400
0.03038475	13.370000	0.090400
0.03039610	72.380000	1.930600
0.03040781	72.380000	1.930600
0.03041927	72.380000	1.930600
0.03043096	94.340000	1.941800
0.03044264	94.340000	1.941800
0.03045412	94.340000	1.941800
0.03046575	94.340000	1.941800
0.03047731	76.810000	1.728200
0.03048890	76.810000	1.728200
0.03050039	9.940000	0.094600
0.03051208	9.940000	0.094600
0.03052350	9.940000	0.094600
0.03053510	118.580000	2.368800
0.03054696	118.580000	2.368800
0.03055851	118.580000	2.368800
0.03057045	61.940000	1.324500
0.03058181	61.940000	1.324500
0.03059326	61.940000	1.324500
0.03060506	45.700000	0.984600
0.03061667	45.700000	0.984600
0.03062802	45.700000	0.984600
0.03063958	45.700000	0.984600
0.03065133	38.830000	0.831600
0.03066282	38.830000	0.831600
0.03067431	35.970000	0.736600
0.03068593	35.970000	0.736600
0.03069759	35.970000	0.736600
0.03070918	37.760000	0.769500
0.03072072	37.760000	0.769500
0.03073241	37.760000	0.769500
0.03074412	34.110000	0.718500
0.03075574	34.110000	0.718500
0.03076769	34.110000	0.718500
0.03077898	36.760000	0.780300
0.03079081	36.760000	0.780300
0.03080243	36.760000	0.780300
0.03081395	29.680000	0.643400
0.03082569	29.680000	0.643400
0.03083748	29.680000	0.643400
0.03084928	14.370000	0.092300
0.03086094	14.370000	0.092300
0.03087260	14.370000	0.092300
0.03088421	13.800000	0.090300
0.03089601	13.800000	0.090300
0.03090747	13.800000	0.090300
0.03091904	100.200000	2.151000
0.03093080	100.200000	2.151000
0.03094225	100.200000	2.151000
0.03095382	73.090000	1.615300
0.03096542	73.090000	1.615300
0.03097722	73.090000	1.615300
0.03098866	75.100000	1.634500
0.03100025	75.100000	1.634500
0.03101186	75.100000	1.634500
0.03102361	80.530000	1.750900
0.03103497	80.530000	1.750900
0.03104709	80.530000	1.750900
0.03105839	4.290000	0.045300
0.03107001	4.290000	0.045300
0.03108135	4.290000	0.045300
0.03109289	90.470000	2.039600
0.03110449	90.470000	2.039600
0.03111604	90.470000	2.039600
0.03112767	40.480000	0.958800
0.03113929	40.480000	0.958800
0.03115113	40.480000	0.958800
0.03116240	25.030000	0.632900
0.03117383	25.030000	0.632900
0.03118541	25.030000	0.632900
0.03119708	27.960000	0.715500
0.03120862	27.960000	0.715500
0.03122025	27.960000	0.715500
0.03123183	25.390000	0.666300
0.03124332	25.390000	0.666300
0.03125483	25.390000	0.666300
0.03126655	23.880000	0.640700
0.03127872	23.880000	0.640700
0.03128965	4.360000	0.640700
0.03130125	4.360000	0.640700
0.03131289	4.360000	0.045300
0.03132427	4.360000	0.045300
0.03133586	4.290000	0.045000
0.03134826	4.290000	0.045000
0.03135914	4.290000	0.045000
0.03137088	42.410000	1.099800
0.03138216	42.410000	1.099800
0.03139377	42.410000	1.099800
0.03140588	62.150000	1.496500
0.03141801	62.150000	1.496500
0.03142850	62.150000	1.496500
0.03144006	57.360000	1.405200
0.03145168	57.360000	1.405200
0.03146315	57.360000	1.405200
0.03147498	60.430000	1.460300
0.03148649	60.430000	1.460300
0.03149812	60.430000	1.460300
0.03150962	16.800000	0.676400
0.03152126	16.800000	0.676400
0.03153285	16.800000	0.676400
0.03154462	7.150000	0.312000
0.03155625	7.150000	0.312000
0.03156801	7.150000	0.312000
0.03157959	41.550000	0.983500
0.03159109	41.550000	0.983500
0.03160266	41.550000	0.983500
0.03161428	31.970000	0.763800
0.03162580	31.970000	0.763800
0.03163738	25.240000	0.641500
0.03164897	25.240000	0.641500
0.03166046	25.240000	0.641500
0.03167216	25.240000	0.641500
0.03168369	24.100000	0.641800
0.03169530	24.100000	0.641800
0.03170698	24.100000	0.641800
0.03171866	26.820000	0.704500
0.03173029	26.820000	0.704500
0.03174177	26.820000	0.704500
0.03175336	28.030000	0.728700
0.03176473	28.030000	0.728700
0.03177634	28.030000	0.728700
0.03178797	4.360000	0.045300
0.03179958	4.360000	0.045300
0.03181132	4.360000	0.045300
0.03182287	11.940000	0.574300
0.03183501	11.940000	0.574300
0.03184608	11.940000	0.574300
0.03185784	54.430000	1.354200
0.03186977	54.430000	1.354200
0.03188162	54.430000	1.354200
0.03189252	57.140000	1.403200
0.03190382	57.140000	1.403200
0.03191567	57.140000	1.403200
0.03192816	62.290000	1.483200
0.03193895	62.290000	1.483200
0.03195056	54.710000	1.381200
0.03196214	54.710000	1.381200
0.03197368	54.710000	1.381200
0.03198560	54.710000	1.381200
0.03199701	4.140000	0.044400
0.03200862	4.140000	0.044400
0.03202028	4.140000	0.044400
0.03203197	66.230000	1.497000
0.03204343	66.230000	1.497000
0.03205485	66.230000	1.497000
0.03206647	31.040000	0.818700
0.03207831	31.040000	0.818700
0.03209024	31.040000	0.818700
0.03210140	27.890000	0.727800
0.03211291	27.890000	0.727800
0.03212471	31.610000	0.773700
0.03213624	31.610000	0.773700
0.03214796	31.610000	0.773700
0.03215984	31.610000	0.773700
0.03217152	25.600000	0.656800
0.03218314	25.600000	0.656800
0.03219441	25.600000	0.656800
0.03220623	25.030000	0.671700
0.03221763	25.030000	0.671700
0.03222913	25.030000	0.671700
0.03224086	24.240000	0.658700
0.03225255	24.240000	0.658700
0.03226424	24.240000	0.658700
0.03227565	12.870000	0.440600
0.03228747	12.870000	0.440600
0.03229909	4.360000	0.045300
0.03231073	4.360000	0.045300
0.03232223	4.360000	0.045300
0.03233378	4.360000	0.045300
0.03234536	3.860000	0.043000
0.03235723	3.860000	0.043000
0.03236868	3.860000	0.043000
0.03238030	55.430000	1.351100
0.03239192	55.430000	1.351100
0.03240381	55.430000	1.351100
0.03241539	62.150000	1.493500
0.03242706	62.150000	1.493500
0.03243833	62.290000	1.497600
0.03244999	62.290000	1.497600
0.03246174	62.290000	1.497600
0.03247303	62.650000	1.491400
0.03248554	62.650000	1.491400
0.03249633	62.650000	1.491400
0.03250777	62.650000	1.491400
0.03251944	4.360000	0.045200
0.03253094	4.360000	0.045200
0.03254272	4.360000	0.045200
0.03255425	81.460000	1.900500
0.03256573	81.460000	1.900500
0.03257728	81.460000	1.900500
0.03258870	37.760000	0.897200
0.03260043	37.760000	0.897200
0.03261192	24.530000	0.640000
0.03262353	24.530000	0.640000
0.03263573	24.530000	0.640000
0.03264663	24.890000	0.680300
0.03265829	24.890000	0.680300
0.03266986	24.890000	0.680300
0.03268132	24.890000	0.680300
0.03269295	24.670000	0.671700
0.03270505	24.670000	0.671700
0.03271617	24.670000	0.671700
0.03272789	28.960000	0.770700
0.03273920	28.960000	0.770700
0.03275075	28.960000	0.770700
0.03276243	4.360000	0.045400
0.03277400	4.360000	0.045400
0.03278560	3.930000	0.043400
0.03279705	3.930000	0.043400
0.03280873	3.930000	0.043400
0.03282032	3.930000	0.043400
0.03283186	72.160000	1.724100
0.03284341	72.160000	1.724100
0.03285587	72.160000	1.724100
0.03286657	63.720000	1.523300
0.03287810	63.720000	1.523300
0.03288980	63.720000	1.523300
0.03290124	55.210000	1.370700
0.03291285	55.210000	1.370700
0.03292451	52.570000	1.370700
0.03293744	52.570000	1.319900
0.03294787	52.570000	1.319900
0.03295904	26.320000	0.169600
0.03297058	26.320000	0.169600
0.03298225	26.320000	0.169600
0.03299385	26.320000	0.169600
0.03300546	84.970000	1.961500
0.03301705	84.970000	1.961500
0.03302891	84.970000	1.961500
0.03304017	54.210000	1.186600
0.03305169	54.210000	1.186600
0.03306339	54.210000	1.186600
0.03307500	35.690000	0.799000
0.03308685	35.690000	0.799000
0.03309876	37.760000	0.821700
0.03311030	37.760000	0.821700
0.03312142	37.760000	0.821700
0.03313274	36.620000	0.788600
0.03314457	36.620000	0.788600
0.03315603	36.620000	0.788600
0.03316757	36.620000	0.788600
0.03317916	32.750000	0.740200
0.03319073	32.750000	0.740200
0.03320241	32.750000	0.740200
0.03321394	33.760000	0.732200
0.03322537	33.760000	0.732200
0.03323718	33.760000	0.732200
0.03324885	31.680000	0.707100
0.03326063	31.680000	0.707100
0.03327226	13.660000	0.092300
0.03328390	13.660000	0.092300
0.03329575	13.660000	0.092300
0.03330708	13.510000	0.091500
0.03331881	13.510000	0.091500
0.03332993	13.510000	0.091500
0.03334159	13.510000	0.091500
0.03335326	78.820000	1.911400
0.03336483	78.820000	1.911400
0.03337656	78.820000	1.911400
0.03338807	59.360000	1.358600
0.03339963	59.360000	1.358600
0.03341140	59.360000	1.358600
0.03342270	69.660000	1.571600
0.03343433	69.660000	1.571600
0.03344590	70.950000	1.574400
0.03345731	70.950000	1.574400
0.03346899	70.950000	1.574400
0.03348058	70.950000	1.574400
0.03349208	18.950000	0.420200
0.03350373	18.950000	0.420200
0.03351520	18.950000	0.420200
0.03352675	15.950000	0.360000
0.03353846	15.950000	0.360000
0.03355006	15.950000	0.360000
0.03356161	62.790000	1.383900
0.03357314	62.790000	1.383900
0.03358483	40.760000	0.915800
0.03359845	40.760000	0.915800
0.03361007	40.760000	0.915800
0.03361950	34.610000	0.820300
0.03363100	34.610000	0.820300
0.03364297	34.610000	0.820300
0.03365428	34.610000	0.820300
0.03366602	37.470000	0.792700
0.03367745	37.470000	0.792700
0.03368895	37.470000	0.792700
0.03370081	34.680000	0.754600
0.03371229	34.680000	0.754600
0.03372395	34.680000	0.754600
0.03373541	38.480000	0.856800
0.03374718	38.480000	0.856800
0.03375882	36.330000	0.801900
0.03377038	36.330000	0.801900
0.03378194	36.330000	0.801900
0.03379363	14.090000	0.093200
0.03380521	14.090000	0.093200
0.03381662	14.090000	0.093200
0.03382834	14.090000	0.093200
0.03383980	13.010000	0.090800
0.03385144	13.010000	0.090800
0.03386322	13.010000	0.090800
0.03387455	93.550000	2.030100
0.03388620	93.550000	2.030100
0.03389787	93.550000	2.030100
0.03390948	72.020000	1.583000
0.03392118	72.020000	1.583000
0.03393274	65.150000	1.474200
0.03394434	65.150000	1.474200
0.03395595	65.150000	1.474200
0.03396767	69.590000	1.554200
0.03397956	69.590000	1.554200
0.03399061	69.590000	1.554200
0.03400242	69.590000	1.554200
0.03401417	7.650000	0.064600
0.03402579	7.650000	0.064600
0.03403729	7.650000	0.064600
0.03404943	33.610000	1.276200
0.03406066	33.610000	1.276200
0.03407229	33.610000	1.276200
0.03408381	32.250000	0.846900
0.03409554	32.250000	0.846900
0.03410701	28.100000	0.737900
0.03411861	28.100000	0.737900
0.03413007	28.100000	0.737900
0.03414169	28.030000	0.715400
0.03415368	28.030000	0.715400
0.03416495	28.030000	0.715400
0.03417649	28.030000	0.715400
0.03418799	25.030000	0.637200
0.03419955	25.030000	0.637200
0.03421141	25.030000	0.637200
0.03422295	23.380000	0.628500
0.03423461	23.380000	0.628500
0.03424622	24.030000	0.641700
0.03425821	24.030000	0.641700
0.03426985	24.030000	0.641700
0.03428146	23.880000	0.641200
0.03429296	23.880000	0.641200
0.03430471	23.880000	0.641200
0.03431584	188.610000	1.880900
0.03432775	188.610000	1.880900
0.03433905	188.610000	1.880900
0.03435075	188.610000	1.880900
0.03436230	64.150000	0.827800
0.03437370	64.150000	0.827800
0.03438546	64.150000	0.827800
0.03439679	62.290000	0.810900
0.03440898	62.290000	0.810900
0.03442102	62.080000	0.811100
0.03443199	62.080000	0.811100
0.03444373	62.080000	0.811100
0.03445513	61.790000	0.811000
0.03446672	61.790000	0.811000
0.03447824	61.790000	0.811000
0.03448983	61.510000	0.810300
0.03450155	61.510000	0.810300
0.03451302	61.510000	0.810300
0.03452481	61.510000	0.810300
0.03453617	60.860000	0.805700
0.03454791	60.860000	0.805700
0.03455934	60.860000	0.805700
0.03457091	60.860000	0.806900
0.03458274	60.860000	0.806900
0.03459457	64.730000	0.841900
0.03460600	64.730000	0.841900
0.03461769	64.730000	0.841900
0.03462924	101.700000	1.074700
0.03464093	101.700000	1.074700
0.03465247	101.700000	1.074700
0.03466442	115.010000	1.104800
0.03467612	115.010000	1.104800
0.03468711	115.010000	1.104800
0.03469890	115.010000	1.104800
0.03471014	132.670000	1.126800
0.03472188	132.670000	1.126800
0.03473346	132.670000	1.126800
0.03474536	143.690000	1.134300
0.03475715	143.690000	1.134300
0.03476911	154.350000	1.140400
0.03478075	154.350000	1.140400
0.03479237	154.350000	1.140400
0.03480377	167.290000	1.132600
0.03481534	167.290000	1.132600
0.03482704	167.290000	1.132600
0.03483921	180.740000	1.145500
0.03485031	180.740000	1.145500
0.03486200	180.740000	1.145500
0.03487722	131.320000	0.937900
0.03488502	131.320000	0.937900
0.03489653	131.320000	0.937900
0.03490795	130.890000	0.937800
0.03491948	130.890000	0.937800
0.03493128	130.890000	0.937800
0.03494260	131.460000	0.939800
0.03495461	131.460000	0.939800
0.03496612	131.460000	0.939800
0.03497743	134.180000	0.952600
0.03498914	134.180000	0.952600
0.03500090	134.180000	0.952600
0.03501216	132.250000	0.944800
0.03502383	132.250000	0.944800
0.03503538	132.250000	0.944800
0.03504718	132.250000	0.944800
0.03505896	132.600000	0.946600
0.03507059	132.600000	0.946600
0.03508212	132.890000	0.946300
0.03509365	132.890000	0.946300
0.03510537	132.890000	0.946300
0.03511708	130.890000	0.938900
0.03512858	130.890000	0.938900
0.03514032	130.890000	0.938900
0.03515177	132.250000	0.944800
0.03516326	132.250000	0.944800
0.03517484	132.250000	0.944800
0.03518664	131.670000	0.940600
0.03519819	131.670000	0.940600
0.03520956	131.670000	0.940600
0.03522116	131.670000	0.940600
0.03523284	131.820000	0.942800
0.03524440	131.820000	0.942800
0.03525631	131.960000	0.941600
0.03526822	131.960000	0.941600
0.03527950	131.960000	0.941600
0.03529084	131.390000	0.939400
0.03530253	131.390000	0.939400
0.03531395	131.390000	0.939400
0.03532565	63.870000	0.620400
0.03533725	63.870000	0.620400
0.03534899	63.870000	0.620400
0.03536069	16.800000	0.189100
0.03537225	16.800000	0.189100
0.03538382	16.800000	0.189100
0.03539522	66.510000	0.189100
0.03540682	66.510000	0.736800
0.03541870	66.510000	0.736800
0.03543002	95.980000	0.925000
0.03544184	95.980000	0.925000
0.03545339	95.980000	0.925000
0.03546503	269.500000	1.620100
0.03547657	269.500000	1.620100
0.03548816	269.500000	1.620100
0.03549972	131.390000	0.936500
0.03551148	131.390000	0.936500
0.03552284	131.390000	0.936500
0.03553433	131.390000	0.936500
0.03554623	130.670000	0.936500
0.03555778	130.670000	0.936500
0.03556955	131.030000	0.938800
0.03558101	131.030000	0.938800
0.03559267	131.030000	0.938800
0.03560404	133.600000	0.949400
0.03561587	133.600000	0.949400
0.03562738	133.600000	0.949400
0.03563905	134.960000	0.954100
0.03565057	134.960000	0.954100
0.03566226	134.960000	0.954100
0.03567385	135.540000	0.956300
0.03568523	135.540000	0.956300
0.03569704	135.540000	0.956300
0.03570850	135.540000	0.956300
0.03572012	135.250000	0.956100
0.03573166	135.250000	0.956100
0.03574323	137.180000	0.963000
0.03575483	137.180000	0.963000
0.03576648	137.180000	0.963000
0.03577807	136.320000	0.960400
0.03578961	136.320000	0.960400
0.03580130	136.320000	0.960400
0.03581271	136.750000	0.962700
0.03582469	136.750000	0.962700
0.03583586	136.750000	0.962700
0.03584748	136.540000	0.960500
0.03585902	136.540000	0.960500
0.03587065	136.540000	0.960500
0.03588215	136.540000	0.960500
0.03589394	136.540000	0.961100
0.03590546	136.540000	0.961100
0.03591709	135.540000	0.956300
0.03592979	135.540000	0.956300
0.03594027	135.540000	0.956300
0.03595179	136.180000	0.960300
0.03596402	136.180000	0.960300
0.03597532	136.180000	0.960300
0.03598689	136.820000	0.963200
0.03599852	136.820000	0.963200
0.03601013	136.820000	0.963200
0.03602181	134.250000	0.933200
0.03603356	134.250000	0.933200
0.03604515	134.250000	0.933200
0.03605655	127.880000	0.870100
0.03606809	127.880000	0.870100
0.03607969	127.880000	0.870100
0.03609169	128.380000	0.873500
0.03610317	128.380000	0.873500
0.03611469	128.380000	0.873500
0.03612622	127.740000	0.871000
0.03613789	127.740000	0.871000
0.03614977	127.740000	0.871000
0.03616124	128.240000	0.873200
0.03617302	128.240000	0.873200
0.03618455	128.240000	0.873200
0.03619608	128.670000	0.874600
0.03620782	128.670000	0.874600
0.03621932	128.670000	0.874600
0.03623098	63.220000	0.542400
0.03624242	63.220000	0.542400
0.03625396	63.220000	0.542400
0.03626559	14.160000	0.091800
0.03627735	14.160000	0.091800
0.03628928	14.160000	0.091800
0.03630081	14.370000	0.092400
0.03631231	14.370000	0.092400
0.03632417	14.370000	0.092400
0.03633547	14.370000	0.092500
0.03634720	14.370000	0.092500
0.03635897	14.370000	0.092500
0.03637030	14.370000	0.092500
0.03638308	14.370000	0.092500
0.03639344	14.370000	0.092500
0.03640497	14.370000	0.092400
0.03641679	14.370000	0.092400
0.03642852	14.370000	0.092400
0.03644000	14.300000	0.092300
0.03645170	14.300000	0.092300
0.03646329	14.300000	0.092300
0.03647486	14.300000	0.092200
0.03648660	14.300000	0.092200
0.03649855	14.300000	0.092200
0.03650998	13.870000	0.090700
0.03652181	13.870000	0.090700
0.03653319	13.870000	0.090700
0.03654484	13.870000	0.090700
0.03655656	13.870000	0.090700
0.03656826	13.870000	0.090700
0.03657986	13.870000	0.090600
0.03659134	13.870000	0.090600
0.03660285	13.870000	0.090600
0.03661491	45.200000	0.975800
0.03662613	45.200000	0.975800
0.03663749	45.200000	0.975800
0.03664903	47.200000	0.974400
0.03666065	47.200000	0.974400
0.03667247	47.200000	0.974400
0.03668398	53.640000	1.057700
0.03669581	53.640000	1.057700
0.03670737	10.580000	0.049700
0.03671895	10.580000	0.049700
0.03673084	10.580000	0.049700
0.03674236	10.580000	0.049700
0.03675426	10.290000	0.049200
0.03676554	10.290000	0.049200
0.03677719	10.290000	0.049200
0.03678860	4.000000	0.043400
0.03680053	4.000000	0.043400
0.03681187	4.000000	0.043400
0.03682356	51.710000	1.107300
0.03683512	51.710000	1.107300
0.03684655	59.720000	1.107300
0.03685828	59.720000	1.242600
0.03686969	59.720000	1.242600
0.03688140	34.400000	0.886500
0.03689288	34.400000	0.886500
0.03690453	34.400000	0.886500
0.03691590	34.400000	0.886500
0.03692758	10.580000	0.049700
0.03693932	10.580000	0.049700
0.03695116	10.580000	0.049700
0.03696263	10.580000	0.049600
0.03697459	10.580000	0.049600
0.03698594	10.580000	0.049600
0.03699749	78.820000	1.636800
0.03700963	78.820000	1.636800
0.03702063	70.300000	1.350400
0.03703214	70.300000	1.350400
0.03704416	70.300000	1.350400
0.03705531	75.600000	1.427800
0.03706720	75.600000	1.427800
0.03707907	75.600000	1.427800
0.03709053	75.600000	1.427800
0.03710223	10.650000	0.050400
0.03711395	10.650000	0.050400
0.03712546	10.650000	0.050400
0.03713734	10.510000	0.049500
0.03714895	10.510000	0.049500
0.03716023	10.510000	0.049500
0.03717221	16.090000	0.414400
0.03718369	16.090000	0.414400
0.03719541	89.830000	1.738800
0.03720693	89.830000	1.738800
0.03721843	89.830000	1.738800
0.03723009	92.620000	1.796900
0.03724169	92.620000	1.796900
0.03725315	92.620000	1.796900
0.03726494	92.620000	1.796900
0.03727633	11.010000	0.060600
0.03728781	11.010000	0.060600
0.03729946	11.010000	0.060600
0.03731144	10.440000	0.049400
0.03732269	10.440000	0.049400
0.03733420	10.440000	0.049400
0.03734571	10.510000	0.049400
0.03735757	10.510000	0.049400
0.03736919	129.890000	2.305700
0.03738073	129.890000	2.305700
0.03739250	129.890000	2.305700
0.03740413	129.890000	2.305700
0.03741582	124.230000	2.217400
0.03742737	124.230000	2.217400
0.03743916	124.230000	2.217400
0.03745068	88.690000	1.822600
0.03746233	88.690000	1.822600
0.03747404	88.690000	1.822600
0.03748581	10.510000	0.049600
0.03749736	10.510000	0.049600
0.03750887	10.440000	0.049300
0.03752052	10.440000	0.049300
0.03753194	10.440000	0.049300
0.03754367	88.540000	2.091700
0.03755539	88.540000	2.091700
0.03756682	88.540000	2.091700
0.03757848	88.540000	2.091700
0.03759044	147.620000	2.608900
0.03760185	147.620000	2.608900
0.03761352	147.620000	2.608900
0.03762515	156.560000	2.764300
0.03763690	156.560000	2.764300
0.03764850	156.560000	2.764300
0.03766024	10.940000	0.052400
0.03767161	10.940000	0.052400
0.03768378	10.440000	0.049400
0.03769513	10.440000	0.049400
0.03770666	10.440000	0.049400
0.03771829	10.580000	0.050200
0.03773006	10.580000	0.050200
0.03774159	10.580000	0.050200
0.03775341	147.480000	2.627800
0.03776469	147.480000	2.627800
0.03777618	147.480000	2.627800
0.03778775	147.480000	2.627800
0.03779998	147.840000	2.586900
0.03781149	147.840000	2.586900
0.03782296	74.100000	2.586900
0.03783456	74.100000	1.821600
0.03784615	74.100000	1.821600
0.03785877	74.100000	1.821600
0.03786957	74.100000	1.821600
0.03788130	74.100000	1.821600
0.03789325	10.370000	0.049400
0.03790477	10.370000	0.049400
0.03791640	10.370000	0.049400
0.03792772	106.850000	2.254800
0.03793944	106.850000	2.254800
0.03795110	106.850000	2.254800
0.03796267	106.850000	2.254800
0.03797410	102.630000	2.189400
0.03798560	102.630000	2.189400
0.03799726	4.430000	0.107200
0.03800906	4.430000	0.107200
0.03802043	4.430000	0.107200
0.03803207	131.460000	2.450700
0.03804491	131.460000	2.450700
0.03805529	131.460000	2.450700
0.03806690	130.890000	2.410200
0.03807821	130.890000	2.410200
0.03808987	130.890000	2.410200
0.03810155	130.890000	2.410200
0.03811326	35.110000	1.162100
0.03812468	35.110000	1.162100
0.03813627	35.110000	1.162100
0.03814782	3.860000	0.042900
0.03815929	3.860000	0.042900
0.03817088	3.860000	0.042800
0.03818256	3.860000	0.042800
0.03819419	3.860000	0.042800
0.03820586	123.520000	2.483600
0.03821749	123.520000	2.483600
0.03822904	123.520000	2.483600
0.03824069	132.170000	2.510800
0.03825198	132.170000	2.510800
0.03826385	132.170000	2.510800
0.03827550	132.170000	2.510800
0.03828708	128.880000	2.482000
0.03829894	128.880000	2.482000
0.03831023	128.880000	2.482000
0.03832204	4.000000	0.043800
0.03833347	4.000000	0.043800
0.03834503	3.860000	0.043000
0.03835686	3.860000	0.043000
0.03836843	3.860000	0.043000
0.03838007	15.660000	0.658100
0.03839163	15.660000	0.658100
0.03840318	15.660000	0.658100
0.03841475	122.800000	2.325400
0.03842634	122.800000	2.325400
0.03843794	122.800000	2.325400
0.03844953	122.800000	2.325400
0.03846116	118.370000	2.212800
0.03847628	4.220000	2.212800
0.03848432	4.220000	2.212800
0.03849715	4.220000	0.044800
0.03850745	4.220000	0.044800
0.03851916	3.860000	0.042800
0.03853072	3.860000	0.042800
0.03854230	3.860000	0.042800
0.03855377	3.930000	0.043300
0.03856529	3.930000	0.043300
0.03857715	3.930000	0.043300
0.03858859	3.930000	0.043300
0.03860010	3.930000	0.043300
0.03861163	3.930000	0.043300
0.03862338	3.930000	0.043300
0.03863475	101.130000	2.022300
0.03864622	101.130000	2.022300
0.03865789	67.370000	1.746200
0.03866969	67.370000	1.746200
0.03868133	67.370000	1.746200
0.03869275	3.790000	0.042900
0.03870420	3.790000	0.042900
0.03871593	3.790000	0.042900
0.03872749	3.860000	0.043000
0.03873904	3.860000	0.043000
0.03875056	3.860000	0.043000
0.03876215	3.860000	0.043000
0.03877368	74.520000	1.810600
0.03878522	74.520000	1.810600
0.03879685	74.520000	1.810600
0.03880867	124.660000	2.348900
0.03882005	124.660000	2.348900
0.03883178	138.900000	2.575100
0.03884362	138.900000	2.575100
0.03885509	138.900000	2.575100
0.03886677	4.220000	0.044500
0.03887878	4.220000	0.044500
0.03889140	4.220000	0.044500
0.03890167	3.860000	0.042900
0.03891329	3.860000	0.042900
0.03892495	3.860000	0.042900
0.03893661	3.860000	0.042900
0.03894826	6.290000	0.263000
0.03895984	6.290000	0.263000
0.03897153	121.800000	2.393200
0.03898312	121.800000	2.393200
0.03899475	121.800000	2.393200
0.03900630	128.740000	2.518700
0.03901797	128.740000	2.518700
0.03902959	128.740000	2.518700
0.03904149	10.650000	0.513800
0.03905304	10.650000	0.513800
0.03906480	10.650000	0.513800
0.03907632	3.860000	0.042900
0.03908826	3.860000	0.042900
0.03909981	3.860000	0.042900
0.03911125	3.860000	0.042900
0.03912288	3.860000	0.043000
0.03913469	3.860000	0.043000
0.03914610	117.010000	2.314300
0.03915771	117.010000	2.314300
0.03916911	117.010000	2.314300
0.03918061	122.450000	2.328200
0.03919252	122.450000	2.328200
0.03920441	122.450000	2.328200
0.03921561	132.890000	2.488200
0.03922716	132.890000	2.488200
0.03923891	132.890000	2.488200
0.03925037	3.860000	0.043100
0.03926219	3.860000	0.043100
0.03927351	3.860000	0.043100
0.03928589	3.860000	0.043100
0.03929711	3.860000	0.042900
0.03930873	3.860000	0.042900
0.03932029	3.860000	0.042900
0.03933187	3.860000	0.042900
0.03934345	3.860000	0.042900
0.03935497	135.250000	2.623700
0.03936638	135.250000	2.623700
0.03937819	135.250000	2.623700
0.03938965	123.520000	2.443500
0.03940148	123.520000	2.443500
0.03941287	123.520000	2.443500
0.03942471	85.750000	2.006400
0.03943610	85.750000	2.006400
0.03944764	85.750000	2.006400
0.03945951	3.710000	0.042600
0.03947117	3.710000	0.042600
0.03948269	3.710000	0.042600
0.03949422	3.710000	0.042600
0.03950582	3.710000	0.042600
0.03951745	3.710000	0.042600
0.03952874	63.650000	1.680800
0.03954030	63.650000	1.680800
0.03955198	63.650000	1.680800
0.03956377	138.680000	2.593500
0.03957515	138.680000	2.593500
0.03958701	138.680000	2.593500
0.03959833	133.750000	2.474900
0.03960985	133.750000	2.474900
0.03962162	133.750000	2.474900
0.03963321	4.000000	0.043500
0.03964486	4.000000	0.043500
0.03965640	4.000000	0.043500
0.03966806	3.710000	0.042500
0.03967983	3.710000	0.042500
0.03969117	3.710000	0.042500
0.03970272	4.430000	0.125300
0.03971418	4.430000	0.125300
0.03972611	4.430000	0.125300
0.03973803	104.780000	2.175700
0.03974934	104.780000	2.175700
0.03976071	104.780000	2.175700
0.03977235	115.650000	2.351400
0.03978394	115.650000	2.351400
0.03979572	115.650000	2.351400
0.03980711	38.330000	1.254600
0.03981888	38.330000	1.254600
0.03983052	38.330000	1.254600
0.03984204	3.790000	0.042500
0.03985398	3.790000	0.042500
0.03986553	3.790000	0.042500
0.03987716	3.710000	0.042500
0.03988889	3.710000	0.042500
0.03990039	3.710000	0.042500
0.03991187	100.920000	2.156100
0.03992365	100.920000	2.156100
0.03993515	120.730000	2.156100
0.03994676	120.730000	2.338500
0.03995847	120.730000	2.338500
0.03996999	120.730000	2.338500
0.03998204	116.940000	2.283000
0.03999336	116.940000	2.283000
0.04000493	116.940000	2.283000
0.04001669	3.790000	0.042500
0.04002853	3.790000	0.042500
0.04003962	3.790000	0.042500
0.04005178	3.790000	0.042500
0.04006284	3.790000	0.042500
0.04007436	3.790000	0.042500
0.04008590	16.880000	0.739000
0.04009741	16.880000	0.739000
0.04010919	119.940000	2.439300
0.04012059	119.940000	2.439300
0.04013221	119.940000	2.439300
0.04014385	119.940000	2.439300
0.04015530	115.290000	2.375900
0.04016694	115.290000	2.375900
0.04017862	115.290000	2.375900
0.04019015	4.220000	0.044800
0.04020163	4.220000	0.044800
0.04021318	4.220000	0.044800
0.04022486	3.790000	0.042600
0.04023648	3.790000	0.042600
0.04024836	3.790000	0.042600
0.04025995	3.930000	0.043200
0.04027154	3.930000	0.043200
0.04028319	114.220000	2.274200
0.04029475	114.220000	2.274200
0.04030640	114.220000	2.274200
0.04031796	114.220000	2.274200
0.04032969	127.310000	2.444800
0.04034135	127.310000	2.444800
0.04035322	127.310000	2.444800
0.04036480	89.690000	2.101800
0.04037660	89.690000	2.101800
0.04038800	89.690000	2.101800
0.04039949	3.860000	0.043100
0.04041103	3.860000	0.043100
0.04042277	3.860000	0.043100
0.04043429	3.860000	0.043100
0.04044575	3.860000	0.043100
0.04045750	74.740000	1.914500
0.04046900	74.740000	1.914500
0.04048046	74.740000	1.914500
0.04049228	74.740000	1.914500
0.04050369	122.230000	2.490000
0.04051537	122.230000	2.490000
0.04052706	122.230000	2.490000
0.04053863	131.530000	2.608100
0.04055017	131.530000	2.608100
0.04056159	131.530000	2.608100
0.04057322	4.000000	0.043600
0.04058479	4.000000	0.043600
0.04059648	3.860000	0.043000
0.04060810	3.860000	0.043000
0.04061985	3.860000	0.043000
0.04063115	3.860000	0.043000
0.04064289	3.860000	0.043200
0.04065444	3.860000	0.043200
0.04066601	3.860000	0.043200
0.04067758	94.190000	1.925000
0.04068905	94.190000	1.925000
0.04070053	94.190000	1.925000
0.04071235	122.450000	2.382100
0.04072380	122.450000	2.382100
0.04073559	122.450000	2.382100
0.04074811	136.180000	2.573400
0.04075866	136.180000	2.573400
0.04077017	136.180000	2.573400
0.04078215	136.180000	2.573400
0.04079373	136.180000	2.573400
0.04080536	136.180000	2.573400
0.04081709	3.860000	0.043100
0.04082863	3.860000	0.043100
0.04083979	3.860000	0.043100
0.04085184	9.720000	0.440500
0.04086341	9.720000	0.440500
0.04087473	9.720000	0.440500
0.04088635	113.650000	2.369100
0.04089792	113.650000	2.369100
0.04090942	113.650000	2.369100
0.04092115	98.340000	2.121400
0.04093281	98.340000	2.121400
0.04094438	4.720000	0.152600
0.04095591	4.720000	0.152600
0.04096759	4.720000	0.152600
0.04097910	4.720000	0.152600
0.04099064	3.860000	0.043100
0.04100227	3.860000	0.043100
0.04101383	3.860000	0.043100
0.04102541	3.790000	0.042600
0.04103698	3.790000	0.042600
0.04104853	3.790000	0.042600
0.04106032	128.740000	2.538300
0.04107193	128.740000	2.538300
0.04108358	116.720000	2.538300
0.04109522	116.720000	2.277900
0.04110686	116.720000	2.277900
0.04111856	106.280000	2.242700
0.04113013	106.280000	2.242700
0.04114177	106.280000	2.242700
0.04115325	106.280000	2.242700
0.04116485	3.790000	0.042600
0.04117650	3.790000	0.042600
0.04118825	3.790000	0.042600
0.04119951	3.790000	0.042500
0.04121125	3.790000	0.042500
0.04122293	3.790000	0.042500
0.04123469	13.730000	0.119600
0.04124604	13.730000	0.119600
0.04125767	163.140000	2.746700
0.04126942	163.140000	2.746700
0.04128100	163.140000	2.746700
0.04129257	176.020000	2.880100
0.04130411	176.020000	2.880100
0.04131642	176.020000	2.880100
0.04132728	176.020000	2.880100
0.04133863	184.890000	2.999100
0.04135051	184.890000	2.999100
0.04136188	184.890000	2.999100
0.04137355	86.680000	1.937200
0.04138514	86.680000	1.937200
0.04139668	86.680000	1.937200
0.04140818	22.530000	0.115600
0.04141979	22.530000	0.115600
0.04143132	70.880000	1.792300
0.04144297	70.880000	1.792300
0.04145459	70.880000	1.792300
0.04146608	154.060000	2.642400
0.04147762	154.060000	2.642400
0.04148939	154.060000	2.642400
0.04150088	154.060000	2.642400
0.04151245	154.060000	2.642400
0.04152396	154.060000	2.642400
0.04153549	154.060000	2.642400
0.04154725	132.820000	2.357700
0.04155873	132.820000	2.357700
0.04157039	132.820000	2.357700
0.04158191	22.530000	0.115700
0.04159353	22.530000	0.115700
0.04160503	23.030000	0.139100
0.04161662	23.030000	0.139100
0.04162812	23.030000	0.139100
0.04163981	126.670000	2.194600
0.04165137	126.670000	2.194600
0.04166282	126.670000	2.194600
0.04167470	126.670000	2.194600
0.04168617	106.500000	1.935200
0.04169774	106.500000	1.935200
0.04170949	106.500000	1.935200
0.04172106	112.150000	2.109300
0.04173265	112.150000	2.109300
0.04174431	14.090000	0.093500
0.04175578	14.090000	0.093500
0.04176715	14.090000	0.093500
0.04177882	13.730000	0.092000
0.04179036	13.730000	0.092000
0.04180194	13.730000	0.092000
0.04181351	13.730000	0.092000
0.04182523	111.220000	2.343500
0.04183684	111.220000	2.343500
0.04184839	111.220000	2.343500
0.04185991	98.840000	1.995700
0.04187146	98.840000	1.995700
0.04188287	98.840000	1.995700
0.04189456	57.500000	1.549100
0.04190611	57.500000	1.549100
0.04191791	23.100000	0.388800
0.04192976	23.100000	0.388800
0.04194126	23.100000	0.388800
0.04195274	102.280000	1.900400
0.04196426	102.280000	1.900400
0.04197595	102.280000	1.900400
0.04198744	102.280000	1.900400
0.04199917	46.630000	0.952700
0.04201056	46.630000	0.952700
0.04202388	46.630000	0.952700
0.04203375	44.980000	0.901500
0.04204537	44.980000	0.901500
0.04205728	44.980000	0.901500
0.04206858	47.630000	0.917600
0.04208041	47.630000	0.917600
0.04209170	43.340000	0.829700
0.04210332	43.340000	0.829700
0.04211483	43.340000	0.829700
0.04212639	42.550000	0.844500
0.04213792	42.550000	0.844500
0.04214954	42.550000	0.844500
0.04216115	42.550000	0.844500
0.04217264	45.990000	0.910100
0.04218422	45.990000	0.910100
0.04219576	45.990000	0.910100
0.04220757	39.620000	0.807500
0.04221910	39.620000	0.807500
0.04223043	39.620000	0.807500
0.04224220	39.620000	0.807500
0.04225378	39.620000	0.807500
0.04226542	14.300000	0.093000
0.04227687	14.300000	0.093000
0.04228838	14.300000	0.093000
0.04229999	14.300000	0.093000
0.04231155	87.540000	1.793000
0.04232324	87.540000	1.793000
0.04233475	87.540000	1.793000
0.04234630	69.880000	1.520100
0.04235785	69.880000	1.520100
0.04236950	69.880000	1.520100
0.04238109	78.740000	1.676000
0.04239286	78.740000	1.676000
0.04240419	79.750000	1.685700
0.04241572	79.750000	1.685700
0.04242733	79.750000	1.685700
0.04243883	7.290000	0.327300
0.04245038	7.290000	0.327300
0.04246221	7.290000	0.327300
0.04247355	7.290000	0.327300
0.04248519	9.720000	0.456800
0.04249668	9.720000	0.456800
0.04250828	9.720000	0.456800
0.04252054	44.560000	1.029600
0.04253148	44.560000	1.029600
0.04254301	44.560000	1.029600
0.04255459	41.840000	0.977900
0.04256618	41.840000	0.977900
0.04257773	34.400000	0.822300
0.04258936	34.400000	0.822300
0.04260093	34.400000	0.822300
0.04261255	31.250000	0.739400
0.04262485	31.250000	0.739400
0.04263566	31.250000	0.739400
0.04264719	31.250000	0.739400
0.04265892	33.760000	0.796900
0.04267063	33.760000	0.796900
0.04268214	33.760000	0.796900
0.04269381	29.250000	0.742400
0.04270508	29.250000	0.742400
0.04271683	30.180000	0.772600
0.04272838	30.180000	0.772600
0.04274006	30.180000	0.772600
0.04275155	12.730000	0.430500
0.04276326	12.730000	0.430500
0.04277472	12.730000	0.430500
0.04278691	12.730000	0.430500
0.04279802	3.930000	0.043100
0.04280942	3.930000	0.043100
0.04282098	3.930000	0.043100
0.04283252	89.330000	2.051100
0.04284421	89.330000	2.051100
0.04285586	89.330000	2.051100
0.04286726	62.870000	1.467900
0.04287887	62.870000	1.467900
0.04289044	63.080000	1.471200
0.04290197	63.080000	1.471200
0.04291387	63.080000	1.471200
0.04292510	66.940000	1.537900
0.04293669	66.940000	1.537900
0.04294843	66.940000	1.537900
0.04295997	66.940000	1.537900
0.04297142	66.940000	1.537900
0.04298324	66.940000	1.537900
0.04299492	66.940000	1.537900
0.04300610	17.160000	0.772500
0.04301794	17.160000	0.772500
0.04302935	17.160000	0.772500
0.04304096	58.570000	1.275700
0.04305238	58.570000	1.275700
0.04306392	39.330000	0.921200
0.04307572	39.330000	0.921200
0.04308734	39.330000	0.921200
0.04309895	34.400000	0.806900
0.04311032	34.400000	0.806900
0.04312201	34.400000	0.806900
0.04313360	34.400000	0.806900
0.04314512	31.680000	0.734100
0.04315663	31.680000	0.734100
0.04316831	31.680000	0.734100
0.04317980	31.820000	0.739800
0.04319140	31.820000	0.739800
0.04320306	28.460000	0.715800
0.04321473	28.460000	0.715800
0.04322611	28.460000	0.715800
0.04323792	27.960000	0.702300
0.04324948	27.960000	0.702300
0.04326100	27.960000	0.702300
0.04327269	27.530000	0.696700
0.04328405	27.530000	0.696700
0.04329601	27.530000	0.696700
0.04330747	27.530000	0.696700
0.04331885	103.920000	1.142900
0.04333037	103.920000	1.142900
0.04334205	103.920000	1.142900
0.04335376	18.160000	0.191000
0.04336512	18.160000	0.191000
0.04337676	16.730000	0.192700
0.04338836	16.730000	0.192700
0.04339988	16.730000	0.192700
0.04341142	38.550000	0.774800
0.04342296	38.550000	0.774800
0.04343454	38.550000	0.774800
0.04344624	38.550000	0.774800
0.04345792	40.260000	0.808600
0.04346978	40.260000	0.808600
0.04348087	40.260000	0.808600
0.04349243	39.120000	0.792000
0.04350411	39.120000	0.792000
0.04351564	39.120000	0.792000
0.04352721	39.120000	0.794600
0.04353891	39.120000	0.794600
0.04355096	36.190000	0.760400
0.04356194	36.190000	0.760400
0.04357351	36.190000	0.760400
0.04358505	36.540000	0.771100
0.04359677	36.540000	0.771100
0.04360831	36.540000	0.771100
0.04361978	36.540000	0.771100
0.04363142	96.050000	1.566500
0.04364287	96.050000	1.566500
0.04365480	96.050000	1.566500
0.04366619	121.660000	1.308200
0.04367772	121.660000	1.308200
0.04368922	121.660000	1.308200
0.04370074	121.660000	1.308200
0.04371237	121.660000	1.308200
0.04372399	87.330000	1.020400
0.04373561	87.330000	1.020400
0.04374705	87.330000	1.020400
0.04375872	87.180000	1.019500
0.04377038	87.180000	1.019500
0.04378248	87.180000	1.019500
0.04379353	87.180000	1.019500
0.04380499	86.400000	1.015100
0.04381641	86.400000	1.015100
0.04382816	86.400000	1.015100
0.04384008	89.970000	1.042600
0.04385139	89.970000	1.042600
0.04386284	90.330000	1.045400
0.04387443	90.330000	1.045400
0.04388605	90.330000	1.045400
0.04389764	88.400000	1.032900
0.04390928	88.400000	1.032900
0.04392080	88.400000	1.032900
0.04393225	120.730000	1.242700
0.04394549	120.730000	1.242700
0.04395553	120.730000	1.242700
0.04396699	120.730000	1.242700
0.04397872	138.830000	1.279100
0.04399044	138.830000	1.279100
0.04400191	138.830000	1.279100
0.04401352	156.280000	1.280500
0.04402514	156.280000	1.280500
0.04403659	169.940000	1.286000
0.04404855	169.940000	1.286000
0.04405971	169.940000	1.286000
0.04407149	179.670000	1.276000
0.04408310	179.670000	1.276000
0.04409450	179.670000	1.276000
0.04410622	179.670000	1.276000
0.04411781	191.900000	1.253000
0.04412918	191.900000	1.253000
0.04414105	191.900000	1.253000
0.04415250	205.700000	1.257400
0.04416402	205.700000	1.257400
0.04417541	205.700000	1.257400
0.04418706	184.750000	1.147500
0.04419873	184.750000	1.147500
0.04421024	158.350000	1.048100
0.04422179	158.350000	1.048100
0.04423341	158.350000	1.048100
0.04424510	157.850000	1.046800
0.04425664	157.850000	1.046800
0.04426804	157.850000	1.046800
0.04427987	157.850000	1.046800
0.04429128	155.280000	1.038300
0.04430267	155.280000	1.038300
0.04431438	155.280000	1.038300
0.04432598	155.060000	1.037000
0.04433770	155.060000	1.037000
0.04434924	154.130000	1.033600
0.04436087	154.130000	1.033600
0.04437233	154.130000	1.033600
0.04438385	154.780000	1.036700
0.04439551	154.780000	1.036700
0.04440763	154.780000	1.036700
0.04441861	154.780000	1.036700
0.04443021	154.780000	1.036700
0.04444172	154.780000	1.036700
0.04445356	154.780000	1.036700
0.04446505	153.990000	1.034000
0.04447684	153.990000	1.034000
0.04448828	153.990000	1.034000
0.04449988	152.420000	1.028100
0.04451128	152.420000	1.028100
0.04452269	153.770000	1.033500
0.04453454	153.770000	1.033500
0.04454590	153.770000	1.033500
0.04455740	154.200000	1.034100
0.04456916	154.200000	1.034100
0.04458072	154.200000	1.034100
0.04459229	154.200000	1.034100
0.04460396	154.780000	1.037900
0.04461543	154.780000	1.037900
0.04462686	154.780000	1.037900
0.04463844	153.850000	1.034400
0.04465051	153.850000	1.034400
0.04466196	153.850000	1.034400
0.04467343	37.050000	0.437400
0.04468510	37.050000	0.437400
0.04469635	16.520000	0.178800
0.04470814	16.520000	0.178800
0.04471963	16.520000	0.178800
0.04473110	113.080000	1.027200
0.04474294	113.080000	1.027200
0.04475428	113.080000	1.027200
0.04476583	113.080000	1.027200
0.04477737	129.030000	1.119900
0.04478903	129.030000	1.119900
0.04480101	129.030000	1.119900
0.04481244	311.420000	1.652000
0.04482380	311.420000	1.652000
0.04483564	151.490000	1.023000
0.04484705	151.490000	1.023000
0.04485878	151.490000	1.023000
0.04487037	154.490000	1.035700
0.04488182	154.490000	1.035700
0.04489310	154.490000	1.035700
0.04490488	154.850000	1.038000
0.04491668	154.850000	1.038000
0.04492792	154.850000	1.038000
0.04493970	154.850000	1.038000
0.04495102	155.350000	1.039600
0.04496279	155.350000	1.039600
0.04497425	155.350000	1.039600
0.04498598	156.140000	1.041400
0.04499752	156.140000	1.041400
0.04500911	156.420000	1.043600
0.04502059	156.420000	1.043600
0.04503201	156.420000	1.043600
0.04504397	156.850000	1.044000
0.04505535	156.850000	1.044000
0.04506733	156.850000	1.044000
0.04507845	156.850000	1.044000
0.04509019	157.420000	1.048200
0.04510170	157.420000	1.048200
0.04511310	157.420000	1.048200
0.04512476	157.420000	1.047200
0.04513649	157.420000	1.047200
0.04514847	157.420000	1.047200
0.04515965	157.420000	1.047200
0.04517126	157.420000	1.047200
0.04518256	159.070000	1.054000
0.04519432	159.070000	1.054000
0.04520616	159.070000	1.054000
0.04521749	159.280000	1.054900
0.04522909	159.280000	1.054900
0.04524076	159.280000	1.054900
0.04525251	159.280000	1.054900
0.04526399	158.640000	1.051100
0.04527552	158.640000	1.051100
0.04528706	158.640000	1.051100
0.04529899	159.780000	1.057100
0.04531037	159.780000	1.057100
0.04532209	159.640000	1.057200
0.04533376	159.640000	1.057200
0.04534536	159.640000	1.057200
0.04535718	149.130000	0.960400
0.04536858	149.130000	0.960400
0.04538006	149.130000	0.960400
0.04539163	150.130000	0.961100
0.04540345	150.130000	0.961100
0.04541493	150.130000	0.961100
0.04542628	150.130000	0.961100
0.04543789	149.550000	0.960500
0.04544940	149.550000	0.960500
0.04546081	149.550000	0.960500
0.04547258	149.910000	0.961300
0.04548435	149.910000	0.961300
0.04549572	150.270000	0.961700
0.04550757	150.270000	0.961700
0.04551904	150.270000	0.961700
0.04553069	149.840000	0.961600
0.04554214	149.840000	0.961600
0.04555396	149.840000	0.961600
0.04556543	150.410000	0.963200
0.04557706	150.410000	0.963200
0.04558859	150.410000	0.963200
0.04560017	150.410000	0.963200
0.04561157	150.560000	0.963800
0.04562367	150.560000	0.963800
0.04563566	150.560000	0.963800
0.04564640	150.130000	0.962400
0.04565803	150.130000	0.962400
0.04566977	151.560000	0.967500
0.04568118	151.560000	0.967500
0.04569272	151.560000	0.967500
0.04570416	149.480000	0.959300
0.04571590	149.480000	0.959300
0.04572780	149.480000	0.959300
0.04573891	149.480000	0.959300
0.04575081	17.950000	0.204200
0.04576203	17.950000	0.204200
0.04577372	17.950000	0.204200
0.04578535	14.160000	0.093400
0.04579789	14.160000	0.093400
0.04580858	14.300000	0.093500
0.04582000	14.300000	0.093500
0.04583159	14.300000	0.093500
0.04584318	14.440000	0.093800
0.04585493	14.440000	0.093800
0.04586726	14.440000	0.093800
0.04587831	14.440000	0.093800
0.04589024	14.440000	0.093800
0.04590110	14.440000	0.093800
0.04591324	14.440000	0.093800
0.04592498	14.300000	0.093500
0.04593595	14.300000	0.093500
0.04594747	14.300000	0.093500
0.04595932	13.940000	0.092300
0.04597057	13.940000	0.092300
0.04598211	13.940000	0.092200
0.04599366	13.940000	0.092200
0.04600554	13.940000	0.092200
0.04601718	11.870000	0.084600
0.04602866	11.870000	0.084600
0.04604001	11.870000	0.084600
0.04605170	55.360000	1.145400
0.04606307	55.360000	1.145400
0.04607473	55.360000	1.145400
0.04608635	55.360000	1.145400
0.04609844	59.080000	1.148600
0.04610962	59.080000	1.148600
0.04612115	59.080000	1.148600
0.04613280	58.720000	1.156200
0.04614447	58.720000	1.156200
0.04615602	10.580000	0.049000
0.04616757	10.580000	0.049000
0.04617912	10.580000	0.049000
0.04619072	7.790000	0.046600
0.04620236	7.790000	0.046600
0.04621378	7.790000	0.046600
0.04622545	62.150000	1.495100
0.04623712	62.150000	1.495100
0.04624851	62.150000	1.495100
0.04626028	62.150000	1.495100
0.04627278	67.730000	1.261700
0.04628353	67.730000	1.261700
0.04629537	71.310000	1.342800
0.04630662	71.310000	1.342800
0.04631830	71.310000	1.342800
0.04633029	17.590000	0.077900
0.04634163	17.590000	0.077900
0.04635314	17.590000	0.077900
0.04636448	17.450000	0.077100
0.04637635	17.450000	0.077100
0.04638804	17.450000	0.077100
0.04639940	17.450000	0.077100
0.04641110	5.290000	0.171600
0.04642273	5.290000	0.171600
0.04643424	5.290000	0.171600
0.04644582	59.650000	1.289100
0.04645759	59.650000	1.289100
0.04646921	60.220000	1.310600
0.04648111	60.220000	1.310600
0.04649258	60.220000	1.310600
0.04650543	26.030000	0.860000
0.04651576	26.030000	0.860000
0.04652779	26.030000	0.860000
0.04653905	3.790000	0.042600
0.04655058	3.790000	0.042600
0.04656208	3.790000	0.042600
0.04657374	3.790000	0.042600
0.04658559	3.790000	0.042600
0.04659708	3.790000	0.042600
0.04660844	3.790000	0.042600
0.04661992	3.790000	0.042600
0.04663154	3.790000	0.042600
0.04664311	8.510000	0.057500
0.04665462	8.510000	0.057500
0.04666633	8.510000	0.057500
0.04667786	84.470000	1.557300
0.04668978	84.470000	1.557300
0.04670144	84.470000	1.557300
0.04671309	82.610000	1.498500
0.04672513	82.610000	1.498500
0.04673664	82.610000	1.498500
0.04674801	82.610000	1.498500
0.04675993	64.080000	1.250700
0.04677155	64.080000	1.250700
0.04678306	64.080000	1.250700
0.04679486	17.520000	0.077200
0.04680657	17.520000	0.077200
0.04681800	17.520000	0.077100
0.04682972	17.520000	0.077100
0.04684146	17.520000	0.077100
0.04685306	68.160000	1.581500
0.04686454	68.160000	1.581500
0.04687602	68.160000	1.581500
0.04688763	102.210000	1.833500
0.04689927	102.210000	1.833500
0.04691090	102.210000	1.833500
0.04692253	102.210000	1.833500
0.04693411	101.780000	1.845100
0.04694554	101.780000	1.845100
0.04695699	17.660000	0.078200
0.04696895	17.660000	0.078200
0.04698020	17.660000	0.078200
0.04699181	17.380000	0.076600
0.04700347	17.380000	0.076600
0.04701516	17.380000	0.076600
0.04702664	17.380000	0.076500
0.04703829	17.380000	0.076500
0.04704986	17.380000	0.076500
0.04706170	129.310000	2.287300
0.04707350	129.310000	2.287300
0.04708519	129.310000	2.287300
0.04709662	129.310000	2.287300
0.04710808	131.750000	2.306800
0.04711977	131.750000	2.306800
0.04713124	133.890000	2.339800
0.04714279	133.890000	2.339800
0.04715436	133.890000	2.339800
0.04716600	17.520000	0.077100
0.04717747	17.520000	0.077100
0.04719049	17.520000	0.077100
0.04720066	17.300000	0.076100
0.04721221	17.300000	0.076100
0.04722387	17.300000	0.076100
0.04723541	19.660000	0.233800
0.04724723	19.660000	0.233800
0.04725861	19.660000	0.233800
0.04727020	159.640000	0.233800
0.04728179	159.640000	2.711800
0.04729334	159.640000	2.711800
0.04730494	166.220000	2.815800
0.04731644	166.220000	2.815800
0.04732810	166.220000	2.815800
0.04733987	166.220000	2.815800
0.04735125	166.220000	2.815800
0.04736294	166.220000	2.815800
0.04737439	17.300000	0.075800
0.04738584	17.300000	0.075800
0.04739757	17.300000	0.075800
0.04740919	17.230000	0.075800
0.04742079	17.230000	0.075800
0.04743247	17.230000	0.075800
0.04744404	132.030000	2.335600
0.04745549	132.030000	2.335600
0.04746696	132.030000	2.335600
0.04747858	160.780000	2.746500
0.04749008	160.780000	2.746500
0.04750179	160.780000	2.746500
0.04751338	168.510000	2.808100
0.04752498	168.510000	2.808100
0.04753640	168.510000	2.808100
0.04754800	17.160000	0.075500
0.04755961	17.160000	0.075500
0.04757131	17.160000	0.075500
0.04758304	17.160000	0.075500
0.04759462	17.230000	0.075500
0.04760626	17.230000	0.075500
0.04761781	39.550000	0.991400
0.04762942	39.550000	0.991400
0.04764087	39.550000	0.991400
0.04765262	118.870000	2.123100
0.04766500	118.870000	2.123100
0.04767553	118.870000	2.123100
0.04768730	4.000000	0.043600
0.04769876	4.000000	0.043600
0.04771017	4.000000	0.043600
0.04772182	118.010000	2.258300
0.04773329	118.010000	2.258300
0.04774512	118.010000	2.258300
0.04775660	113.220000	2.258300
0.04776804	113.220000	2.159700
0.04777977	113.220000	2.159700
0.04779152	76.880000	1.748400
0.04780294	76.880000	1.748400
0.04781468	76.880000	1.748400
0.04782626	3.790000	0.042800
0.04783780	3.790000	0.042800
0.04784918	3.790000	0.042800
0.04786088	3.790000	0.042900
0.04787226	3.790000	0.042900
0.04788373	3.790000	0.042900
0.04789543	57.860000	1.485100
0.04790706	57.860000	1.485100
0.04791868	57.860000	1.485100
0.04793012	130.240000	2.464200
0.04794164	130.240000	2.464200
0.04795345	130.240000	2.464200
0.04796508	123.160000	2.362700
0.04797664	123.160000	2.362700
0.04798834	123.160000	2.362700
0.04799969	3.930000	0.043400
0.04801126	3.930000	0.043400
0.04802282	3.930000	0.043400
0.04803473	3.710000	0.042900
0.04804591	3.710000	0.042900
0.04805763	3.710000	0.042900
0.04806936	3.710000	0.042900
0.04808080	3.710000	0.042900
0.04809273	3.710000	0.042900
0.04810411	111.650000	2.198400
0.04811564	111.650000	2.198400
0.04812762	111.650000	2.198400
0.04813918	114.720000	2.209800
0.04815062	114.720000	2.209800
0.04816228	114.720000	2.209800
0.04817394	38.480000	1.271100
0.04818531	38.480000	1.271100
0.04819705	38.480000	1.271100
0.04820867	3.710000	0.042200
0.04822039	3.710000	0.042200
0.04823176	3.710000	0.042200
0.04824338	3.710000	0.042200
0.04825497	3.640000	0.042300
0.04826639	3.640000	0.042300
0.04827803	102.490000	2.091800
0.04828954	102.490000	2.091800
0.04830117	102.490000	2.091800
0.04831286	120.090000	2.332400
0.04832432	120.090000	2.332400
0.04833587	120.090000	2.332400
0.04834752	115.220000	2.248700
0.04835899	115.220000	2.248700
0.04837058	115.220000	2.248700
0.04838223	3.790000	0.042800
0.04839388	3.790000	0.042800
0.04840549	3.640000	0.042200
0.04841720	3.640000	0.042200
0.04842840	3.640000	0.042200
0.04844002	3.640000	0.042200
0.04845186	38.620000	1.257600
0.04846351	38.620000	1.257600
0.04847530	38.620000	1.257600
0.04848707	107.860000	2.108000
0.04849837	107.860000	2.108000
0.04851000	107.860000	2.108000
0.04852162	109.000000	2.108100
0.04853332	109.000000	2.108100
0.04854499	109.000000	2.108100
0.04855641	4.140000	0.044300
0.04856824	4.140000	0.044300
0.04857993	3.640000	0.042200
0.04859150	3.640000	0.042200
0.04860306	3.640000	0.042200
0.04861448	3.640000	0.042200
0.04862610	3.640000	0.042200
0.04863777	3.640000	0.042200
0.04864925	3.640000	0.042200
0.04866089	114.720000	2.273900
0.04867245	114.720000	2.273900
0.04868395	114.720000	2.273900
0.04869566	120.730000	2.337000
0.04870742	120.730000	2.337000
0.04871869	120.730000	2.337000
0.04873038	118.440000	2.314300
0.04874184	118.440000	2.314300
0.04875353	118.440000	2.314300
0.04876519	3.710000	0.042300
0.04877677	3.710000	0.042300
0.04878861	3.710000	0.042300
0.04880032	3.640000	0.042100
0.04881191	3.640000	0.042100
0.04882332	3.640000	0.042100
0.04883500	5.290000	0.185400
0.04884648	5.290000	0.185400
0.04885795	5.290000	0.185400
0.04886969	128.960000	2.467800
0.04888131	128.960000	2.467800
0.04889285	105.780000	2.467800
0.04890446	105.780000	2.066000
0.04891616	105.780000	2.066000
0.04892755	105.780000	2.066000
0.04893898	29.250000	1.079600
0.04895094	29.250000	1.079600
0.04896240	29.250000	1.079600
0.04897396	3.710000	0.042200
0.04898574	3.710000	0.042200
0.04899721	3.710000	0.042200
0.04900904	3.640000	0.042200
0.04902042	3.640000	0.042200
0.04903205	3.640000	0.042200
0.04904372	107.000000	2.224800
0.04905521	107.000000	2.224800
0.04906687	125.520000	2.444300
0.04907845	125.520000	2.444300
0.04909008	125.520000	2.444300
0.04910178	125.520000	2.444300
0.04911316	109.570000	2.190500
0.04912464	109.570000	2.190500
0.04913654	109.570000	2.190500
0.04914801	3.930000	0.043200
0.04915978	3.930000	0.043200
0.04917148	3.930000	0.043200
0.04918295	3.790000	0.042700
0.04919464	3.790000	0.042700
0.04920617	3.790000	0.042700
0.04921766	18.520000	0.741600
0.04922949	18.520000	0.741600
0.04924119	109.860000	2.179300
0.04925285	109.860000	2.179300
0.04926443	109.860000	2.179300
0.04927598	109.860000	2.179300
0.04928749	124.520000	2.382900
0.04929914	124.520000	2.382900
0.04931068	124.520000	2.382900
0.04932274	4.290000	0.045100
0.04933394	4.290000	0.045100
0.04934580	4.290000	0.045100
0.04935722	3.790000	0.042900
0.04936873	3.790000	0.042900
0.04938057	3.790000	0.042900
0.04939228	3.860000	0.043200
0.04940353	3.860000	0.043200
0.04941514	123.590000	2.410100
0.04942682	123.590000	2.410100
0.04943837	123.590000	2.410100
0.04944991	123.590000	2.410100
0.04946149	115.790000	2.323200
0.04947300	115.790000	2.323200
0.04948487	115.790000	2.323200
0.04949638	66.300000	1.689800
0.04950800	66.300000	1.689800
0.04951951	66.300000	1.689800
0.04953110	3.790000	0.042800
0.04954302	3.790000	0.042800
0.04955465	3.790000	0.042700
0.04956616	3.790000	0.042700
0.04957788	3.790000	0.042700
0.04958933	65.510000	1.718500
0.04960093	65.510000	1.718500
0.04961255	65.510000	1.718500
0.04962410	65.510000	1.718500
0.04963556	112.220000	2.213000
0.04964735	112.220000	2.213000
0.04965900	112.220000	2.213000
0.04967032	121.300000	2.333100
0.04968194	121.300000	2.333100
0.04969377	121.300000	2.333100
0.04970515	4.000000	0.043800
0.04971723	4.000000	0.043800
0.04972860	3.790000	0.042900
0.04974007	3.790000	0.042900
0.04975175	3.790000	0.042900
0.04976330	5.220000	0.182400
0.04977554	5.220000	0.182400
0.04978639	5.220000	0.182400
0.04979799	5.220000	0.182400
0.04980956	117.730000	2.363300
0.04982117	117.730000	2.363300
0.04983269	117.730000	2.363300
0.04984424	112.580000	2.273200
0.04985615	112.580000	2.273200
0.04986791	112.580000	2.273200
0.04987902	20.740000	0.829700
0.04989080	20.740000	0.829700
0.04990237	3.790000	0.042700
0.04991411	3.790000	0.042700
0.04992575	3.790000	0.042700
0.04993766	3.790000	0.042700
0.04994924	3.790000	0.042500
0.04996053	3.790000	0.042500
0.04997214	3.790000	0.042500
0.04998368	97.130000	2.095000
0.04999534	97.130000	2.095000
0.05000664	97.130000	2.095000
0.05001844	109.790000	2.167300
0.05003080	109.790000	2.167300
0.05004170	117.300000	2.282400
0.05005311	117.300000	2.282400
0.05006563	117.300000	2.282400
0.05007648	3.930000	0.043400
0.05008807	3.930000	0.043400
0.05009988	3.930000	0.043400
0.05011146	3.930000	0.043400
0.05012318	3.790000	0.042700
0.05013466	3.790000	0.042700
0.05014628	3.790000	0.042700
0.05015777	3.790000	0.042700
0.05016955	3.790000	0.042700
0.05018189	3.790000	0.042700
0.05019282	123.090000	2.436300
0.05020450	123.090000	2.436300
0.05021591	118.160000	2.383700
0.05022763	118.160000	2.383700
0.05023909	118.160000	2.383700
0.05025098	90.120000	1.974900
0.05026238	90.120000	1.974900
0.05027418	90.120000	1.974900
0.05028572	90.120000	1.974900
0.05029740	3.790000	0.042600
0.05030913	3.790000	0.042600
0.05032090	3.790000	0.042600
0.05033247	3.790000	0.042700
0.05034404	3.790000	0.042700
0.05035554	3.790000	0.042700
0.05036722	39.550000	1.296800
0.05037875	39.550000	1.296800
0.05039022	120.300000	2.344200
0.05040193	120.300000	2.344200
0.05041350	120.300000	2.344200
0.05042498	130.240000	2.480200
0.05043657	130.240000	2.480200
0.05044814	130.240000	2.480200
0.05045966	130.240000	2.480200
0.05047122	4.140000	0.044200
0.05048306	4.140000	0.044200
0.05049487	4.140000	0.044200
0.05050625	3.790000	0.042700
0.05051912	3.790000	0.042700
0.05052972	3.790000	0.042700
0.05054108	3.860000	0.043000
0.05055282	3.860000	0.043000
0.05056483	109.570000	2.261100
0.05057619	109.570000	2.261100
0.05058762	109.570000	2.261100
0.05060014	126.240000	2.520900
0.05061101	126.240000	2.520900
0.05062270	126.240000	2.520900
0.05063400	126.240000	2.520900
0.05064567	59.500000	1.611800
0.05065723	59.500000	1.611800
0.05066902	59.500000	1.611800
0.05068043	3.790000	0.042600
0.05069221	3.790000	0.042600
0.05070380	3.790000	0.042700
0.05071516	3.790000	0.042700
0.05072692	3.790000	0.042700
0.05073855	67.160000	1.677000
0.05075002	67.160000	1.677000
0.05076178	67.160000	1.677000
0.05077306	110.860000	2.184600
0.05078532	110.860000	2.184600
0.05079622	110.860000	2.184600
0.05080786	110.860000	2.184600
0.05081937	4.290000	0.044900
0.05083243	4.290000	0.044900
0.05084469	4.290000	0.044900
0.05085617	58.000000	1.417800
0.05086767	58.000000	1.417800
0.05087888	189.970000	3.040200
0.05089079	189.970000	3.040200
0.05090145	189.970000	3.040200
0.05091369	192.400000	3.113900
0.05092463	192.400000	3.113900
0.05093603	192.400000	3.113900
0.05094774	180.310000	2.911400
0.05095994	180.310000	2.911400
0.05097113	180.310000	2.911400
0.05098226	180.310000	2.911400
0.05099498	22.600000	0.115700
0.05100619	22.600000	0.115700
0.05101729	22.600000	0.115700
0.05102983	22.740000	0.116500
0.05104065	22.740000	0.116500
0.05105197	184.170000	3.046600
0.05106426	184.170000	3.046600
0.05107626	184.170000	3.046600
0.05108681	164.150000	2.771700
0.05109846	164.150000	2.771700
0.05111056	164.150000	2.771700
0.05112208	150.840000	2.573400
0.05113323	150.840000	2.573400
0.05114561	150.840000	2.573400
0.05115712	150.840000	2.573400
0.05116799	23.030000	0.117500
0.05117955	23.030000	0.117500
0.05119227	22.450000	0.115200
0.05120278	22.450000	0.115200
0.05121441	22.450000	0.115200
0.05122623	141.900000	2.591800
0.05123880	141.900000	2.591800
0.05124892	141.900000	2.591800
0.05126042	120.520000	2.074500
0.05127288	120.520000	2.074500
0.05128389	120.520000	2.074500
0.05129530	108.570000	1.993000
0.05130771	108.570000	1.993000
0.05131891	108.570000	1.993000
0.05133012	108.570000	1.993000
0.05134282	84.970000	1.748200
0.05135428	84.970000	1.748200
0.05136485	14.010000	0.092500
0.05137667	14.010000	0.092500
0.05138912	14.010000	0.092500
0.05139957	17.950000	0.395200
0.05141103	17.950000	0.395200
0.05142382	17.950000	0.395200
0.05143485	96.910000	1.940700
0.05144581	96.910000	1.940700
0.05145876	96.910000	1.940700
0.05146943	96.910000	1.940700
0.05148084	96.480000	1.963900
0.05149328	96.480000	1.963900
0.05150481	96.480000	1.963900
0.05151554	96.270000	2.002000
0.05152679	96.270000	2.002000
0.05153985	16.730000	0.145400
0.05155032	16.730000	0.145400
0.05156166	16.730000	0.145400
0.05157395	118.730000	2.192800
0.05158520	118.730000	2.192800
0.05159662	118.730000	2.192800
0.05160847	63.220000	1.278300
0.05162075	63.220000	1.278300
0.05163135	63.220000	1.278300
0.05164390	63.220000	1.278300
0.05165561	48.350000	0.974900
0.05166628	48.350000	0.974900
0.05167837	50.640000	0.981600
0.05169049	50.640000	0.981600
0.05170153	50.640000	0.981600
0.05171315	48.560000	0.917200
0.05172580	48.560000	0.917200
0.05173675	48.560000	0.917200
0.05174831	46.270000	0.881900
0.05176008	46.270000	0.881900
0.05177175	46.270000	0.881900
0.05178280	43.200000	0.862100
0.05179565	43.200000	0.862100
0.05180701	43.200000	0.862100
0.05181771	43.200000	0.862100
0.05183069	47.420000	0.947700
0.05184228	47.420000	0.947700
0.05185277	42.480000	0.857800
0.05186404	42.480000	0.857800
0.05187590	42.480000	0.857800
0.05188755	14.730000	0.094300
0.05189861	14.730000	0.094300
0.05191122	14.730000	0.094300
0.05192235	14.300000	0.093000
0.05193346	14.300000	0.093000
0.05194510	14.300000	0.093000
0.05195733	78.390000	1.625600
0.05196858	78.390000	1.625600
0.05197998	78.390000	1.625600
0.05199289	78.390000	1.625600
0.05200347	83.540000	1.743600
0.05201442	83.540000	1.743600
0.05202669	90.470000	1.863800
0.05203797	90.470000	1.863800
0.05204919	90.470000	1.863800
0.05206170	87.900000	1.806600
0.05207312	87.900000	1.806600
0.05208405	87.900000	1.806600
0.05209560	4.220000	0.044900
0.05210888	4.220000	0.044900
0.05211922	4.220000	0.044900
0.05213064	82.460000	1.666400
0.05214263	82.460000	1.666400
0.05215370	82.460000	1.666400
0.05216490	51.060000	1.113600
0.05217714	51.060000	1.113600
0.05218890	51.060000	1.113600
0.05220000	39.050000	0.879200
0.05221198	39.050000	0.879200
0.05222409	39.050000	0.879200
0.05223472	39.190000	0.862700
0.05224638	39.190000	0.862700
0.05225950	39.190000	0.862700
0.05226983	34.040000	0.767700
0.05228064	34.040000	0.767700
0.05229332	34.040000	0.767700
0.05230389	34.040000	0.767700
0.05231562	30.890000	0.748700
0.05232722	30.890000	0.748700
0.05233872	31.110000	0.754100
0.05235049	31.110000	0.754100
0.05236229	31.110000	0.754100
0.05237382	33.970000	0.815100
0.05238514	33.970000	0.815100
0.05239693	33.970000	0.815100
0.05240837	122.090000	1.287300
0.05242010	122.090000	1.287300
0.05243218	122.090000	1.287300
0.05244318	18.090000	0.194800
0.05245485	18.090000	0.194800
0.05246642	18.090000	0.194800
0.05247785	18.090000	0.194800
0.05248943	20.310000	0.198900
0.05250108	20.310000	0.198900
0.05251272	42.120000	0.825500
0.05252426	42.120000	0.825500
0.05253591	42.120000	0.825500
0.05254771	43.410000	0.852000
0.05255921	43.410000	0.852000
0.05257106	43.410000	0.852000
0.05258269	42.340000	0.836100
0.05259436	42.340000	0.836100
0.05260596	42.340000	0.836100
0.05261736	42.480000	0.846200
0.05262904	42.480000	0.846200
0.05264061	42.480000	0.846200
0.05265207	39.410000	0.846200
0.05266383	39.410000	0.810300
0.05267527	39.410000	0.810300
0.05268703	39.760000	0.814400
0.05269883	39.760000	0.814400
0.05271057	39.760000	0.814400
0.05272176	110.360000	1.694100
0.05273331	110.360000	1.694100
0.05274530	110.360000	1.694100
0.05275654	105.570000	1.166700
0.05276853	105.570000	1.166700
0.05277995	105.570000	1.166700
0.05279156	93.190000	1.065700
0.05280324	93.190000	1.065700
0.05281510	93.190000	1.065700
0.05282659	91.400000	1.043600
0.05283833	91.400000	1.043600
0.05285061	91.400000	1.043600
0.05286197	91.120000	1.042000
0.05287323	91.120000	1.042000
0.05288578	91.120000	1.042000
0.05289703	89.260000	1.031700
0.05290874	89.260000	1.031700
0.05292073	89.260000	1.031700
0.05293168	86.760000	1.012500
0.05294353	86.760000	1.012500
0.05295442	86.760000	1.012500
0.05296640	86.400000	1.010800
0.05297772	86.400000	1.010800
0.05298920	86.400000	1.010800
0.05300073	87.400000	1.021600
0.05301274	87.400000	1.021600
0.05302385	87.400000	1.021600
0.05303553	117.150000	1.220500
0.05304727	117.150000	1.220500
0.05305876	117.150000	1.220500
0.05307049	134.890000	1.257800
0.05308197	134.890000	1.257800
0.05309348	134.890000	1.257800
0.05310529	152.630000	1.266900
0.05311681	152.630000	1.266900
0.05312839	163.290000	1.266900
0.05313994	163.290000	1.262800
0.05315168	163.290000	1.262800
0.05316304	163.290000	1.262800
0.05317451	175.520000	1.266400
0.05318672	175.520000	1.266400
0.05319772	175.520000	1.266400
0.05320954	191.610000	1.263900
0.05322127	191.610000	1.263900
0.05323258	191.610000	1.263900
0.05324433	200.340000	1.251300
0.05325609	200.340000	1.251300
0.05326826	200.340000	1.251300
0.05327917	213.780000	1.257800
0.05329244	213.780000	1.257800
0.05330347	235.310000	1.261800
0.05331373	235.310000	1.261800
0.05332718	235.310000	1.261800
0.05333707	235.310000	1.261800
0.05334862	230.660000	1.215500
0.05336014	230.660000	1.215500
0.05337170	230.660000	1.215500
0.05338316	189.390000	1.086300
0.05339456	189.390000	1.086300
0.05340635	189.390000	1.086300
0.05341775	184.670000	1.073900
0.05342988	184.670000	1.073900
0.05344110	184.670000	1.073900
0.05345253	184.960000	1.074900
0.05346397	184.960000	1.074900
0.05347627	184.960000	1.074900
0.05348729	182.100000	1.065700
0.05349892	182.100000	1.065700
0.05351030	182.100000	1.065700
0.05352229	180.380000	1.060800
0.05353347	180.380000	1.060800
0.05354514	180.380000	1.060800
0.05355737	198.120000	1.114700
0.05356824	198.120000	1.114700
0.05357987	198.120000	1.114700
0.05359167	224.080000	1.176900
0.05360353	224.080000	1.176900
0.05361470	224.080000	1.176900
0.05362619	224.080000	1.150700
0.05363773	224.080000	1.150700
0.05364964	224.080000	1.150700
0.05366145	215.860000	1.385100
0.05367295	215.860000	1.385100
0.05368455	215.860000	1.385100
0.05369622	205.700000	1.328100
0.05370899	205.700000	1.328100
0.05371925	205.700000	1.328100
0.05373117	196.190000	1.293800
0.05374249	196.190000	1.293800
0.05375400	196.190000	1.293800
0.05376564	18.020000	0.214300
0.05377720	18.020000	0.214300
0.05378869	23.880000	0.290000
0.05380037	23.880000	0.290000
0.05381179	23.880000	0.290000
0.05382337	23.880000	0.290000
0.05383498	17.300000	0.189600
0.05384672	17.300000	0.189600
0.05385824	17.300000	0.189600
0.05386969	188.110000	1.384300
0.05388127	188.110000	1.384300
0.05389295	188.110000	1.384300
0.05390461	293.460000	1.584400
0.05391597	293.460000	1.584400
0.05392743	293.460000	1.584400
0.05393935	278.870000	1.338100
0.05395184	278.870000	1.338100
0.05396258	219.860000	1.142400
0.05397378	219.860000	1.142400
0.05398873	219.860000	1.142400
0.05400016	127.450000	1.035900
0.05400874	127.450000	1.035900
0.05402013	127.450000	1.035900
0.05403177	127.450000	1.035900
0.05404344	200.910000	1.311100
0.05405495	200.910000	1.311100
0.05406646	200.910000	1.311100
0.05407826	200.550000	1.306800
0.05408983	200.550000	1.306800
0.05410119	202.770000	1.317400
0.05411299	202.770000	1.317400
0.05412454	202.770000	1.317400
0.05413594	202.770000	1.317400
0.05415120	203.910000	1.320900
0.05415968	203.910000	1.320900
0.05417233	203.910000	1.320900
0.05418481	199.770000	1.309300
0.05419389	199.770000	1.309300
0.05420564	199.770000	1.309300
0.05421736	200.200000	1.307000
0.05422848	200.200000	1.307000
0.05424010	200.200000	1.307000
0.05425181	204.270000	1.326300
0.05426360	204.270000	1.326300
0.05427488	206.920000	1.336200
0.05428672	206.920000	1.336200
0.05429852	206.920000	1.336200
0.05431021	206.920000	1.336200
0.05432160	201.700000	1.318800
0.05433326	201.700000	1.318800
0.05434478	201.700000	1.318800
0.05435641	202.050000	1.321700
0.05436786	202.050000	1.321700
0.05437957	202.050000	1.321700
0.05439116	202.630000	1.324100
0.05440259	202.630000	1.324100
0.05441409	202.630000	1.324100
0.05442584	203.840000	1.327900
0.05443751	203.840000	1.327900
0.05444896	195.470000	1.244500
0.05446050	195.470000	1.244500
0.05447263	195.470000	1.244500
0.05448361	195.470000	1.244500
0.05449514	192.400000	1.233200
0.05450692	192.400000	1.233200
0.05451834	192.400000	1.233200
0.05453001	195.190000	1.245400
0.05454149	195.190000	1.245400
0.05455300	195.190000	1.245400
0.05456470	193.830000	1.241400
0.05457645	193.830000	1.241400
0.05458801	196.690000	1.241400
0.05460002	196.690000	1.251300
0.05461102	196.690000	1.251300
0.05462274	193.760000	1.240500
0.05463434	193.760000	1.240500
0.05464617	193.760000	1.240500
0.05465760	193.760000	1.240500
0.05466910	198.340000	1.258700
0.05468080	198.340000	1.258700
0.05469229	198.340000	1.258700
0.05470406	195.900000	1.248100
0.05471561	195.900000	1.248100
0.05472733	195.900000	1.248100
0.05473916	198.910000	1.262700
0.05475086	198.910000	1.262700
0.05476227	200.550000	1.267600
0.05477400	200.550000	1.267600
0.05478574	200.550000	1.267600
0.05479719	82.460000	0.752800
0.05480875	82.460000	0.752800
0.05482022	82.460000	0.752800
0.05483212	82.460000	0.752800
0.05484345	25.030000	0.310800
0.05485524	25.030000	0.310800
0.05486663	25.030000	0.310800
0.05487834	16.450000	0.176000
0.05488992	16.450000	0.176000
0.05490133	16.450000	0.176000
0.05491324	16.660000	0.185200
0.05492466	16.660000	0.185200
0.05493677	16.300000	0.202600
0.05494817	16.300000	0.202600
0.05495971	16.300000	0.202600
0.05497125	18.310000	0.279200
0.05498295	18.310000	0.279200
0.05499441	18.310000	0.279200
0.05500600	18.310000	0.279200
0.05501778	45.770000	0.841800
0.05502919	45.770000	0.841800
0.05504103	45.770000	0.841800
0.05505225	43.120000	0.818200
0.05506389	43.120000	0.818200
0.05507538	43.120000	0.818200
0.05508705	44.700000	0.840000
0.05509884	44.700000	0.840000
0.05511016	44.200000	0.859200
0.05512171	44.200000	0.859200
0.05513325	44.200000	0.859200
0.05514483	44.200000	0.859200
0.05515639	43.630000	0.849800
0.05516793	43.630000	0.849800
0.05517948	43.630000	0.849800
0.05519119	45.060000	0.896100
0.05520270	45.060000	0.896100
0.05521429	45.060000	0.896100
0.05522597	179.520000	1.797200
0.05523753	179.520000	1.797200
0.05524913	88.190000	1.021200
0.05526097	88.190000	1.021200
0.05527227	88.190000	1.021200
0.05528402	87.830000	1.017500
0.05529552	87.830000	1.017500
0.05530766	87.830000	1.017500
0.05531883	87.830000	1.017500
0.05533069	84.970000	0.998800
0.05534207	84.970000	0.998800
0.05535360	84.970000	0.998800
0.05536507	84.540000	0.998000
0.05537668	84.540000	0.998000
0.05538821	84.540000	0.998000
0.05539978	84.750000	0.996500
0.05541130	84.750000	0.996500
0.05542293	85.330000	1.005500
0.05543462	85.330000	1.005500
0.05544608	85.330000	1.005500
0.05545769	85.680000	1.004600
0.05546958	85.680000	1.004600
0.05548095	85.680000	1.004600
0.05549281	85.680000	1.004600
0.05550433	85.180000	1.001300
0.05551606	85.180000	1.001300
0.05552804	85.180000	1.001300
0.05553955	139.540000	1.276100
0.05555112	139.540000	1.276100
0.05556285	158.350000	1.276100
0.05557416	158.350000	1.286200
0.05558584	158.350000	1.286200
0.05559736	175.660000	1.288700
0.05560920	175.660000	1.288700
0.05562060	175.660000	1.288700
0.05563230	204.770000	1.293900
0.05564410	204.770000	1.293900
0.05565591	204.770000	1.293900
0.05566738	204.770000	1.293900
0.05567889	223.300000	1.294400
0.05569050	223.300000	1.294400
0.05570216	223.300000	1.294400
0.05571384	242.970000	1.291200
0.05572532	242.970000	1.291200
0.05573694	257.060000	1.248500
0.05574897	257.060000	1.248500
0.05576036	257.060000	1.248500
0.05577215	134.250000	0.882500
0.05578378	134.250000	0.882500
0.05579537	134.250000	0.882500
0.05580708	224.300000	1.401600
0.05581863	224.300000	1.401600
0.05583025	224.300000	1.401600
0.05584169	224.300000	1.401600
0.05585336	202.480000	1.320500
0.05586488	202.480000	1.320500
0.05587635	202.480000	1.320500
0.05588892	197.410000	1.303900
0.05589962	197.410000	1.303900
0.05591110	198.260000	1.308000
0.05592300	198.260000	1.308000
0.05593416	198.260000	1.308000
0.05594580	199.690000	1.314700
0.05595758	199.690000	1.314700
0.05596904	199.690000	1.314700
0.05598088	198.620000	1.311100
0.05599213	198.620000	1.311100
0.05600389	198.620000	1.311100
0.05601536	198.620000	1.311100
0.05602692	200.120000	1.317300
0.05603851	200.120000	1.317300
0.05605010	200.770000	1.317300
0.05606172	200.770000	1.320000
0.05607347	200.770000	1.320000
0.05608514	202.270000	1.330300
0.05609684	202.270000	1.330300
0.05610845	202.270000	1.330300
0.05612002	204.770000	1.337800
0.05613152	204.770000	1.337800
0.05614294	204.770000	1.337800
0.05615461	204.770000	1.337800
0.05616623	202.770000	1.332300
0.05617793	202.770000	1.332300
0.05618942	202.770000	1.332300
0.05620100	203.340000	1.334700
0.05621274	203.340000	1.334700
0.05622461	202.410000	1.332200
0.05623677	202.410000	1.332200
0.05624759	202.410000	1.332200
0.05625928	206.350000	1.346400
0.05627091	206.350000	1.346400
0.05628241	206.350000	1.346400
0.05629412	203.560000	1.336900
0.05630561	203.560000	1.336900
0.05631721	203.560000	1.336900
0.05632878	203.560000	1.336900
0.05634029	206.630000	1.349300
0.05635166	206.630000	1.349300
0.05636334	206.630000	1.349300
0.05637646	205.770000	1.346700
0.05638641	205.770000	1.346700
0.05639856	202.130000	1.333200
0.05640990	202.130000	1.333200
0.05642157	202.130000	1.333200
0.05643296	206.780000	1.349500
0.05644437	206.780000	1.349500
0.05645622	206.780000	1.349500
0.05646764	203.060000	1.336700
0.05647911	203.060000	1.336700
0.05649076	203.060000	1.336700
0.05650221	203.060000	1.336700
0.05651405	205.630000	1.344900
0.05652560	205.630000	1.344900
0.05653716	199.410000	1.344900
0.05654875	199.410000	1.321800
0.05656063	199.410000	1.321800
0.05657223	202.630000	1.334200
0.05658403	202.630000	1.334200
0.05659539	202.630000	1.334200
0.05660701	204.130000	1.335500
0.05661851	204.130000	1.335500
0.05663024	204.130000	1.335500
0.05664211	200.120000	1.324000
0.05665362	200.120000	1.324000
0.05666520	200.120000	1.324000
0.05667690	200.120000	1.324000
0.05668838	206.200000	1.347900
0.05670020	206.200000	1.347900
0.05671145	201.550000	1.328600
0.05672330	201.550000	1.328600
0.05673505	201.550000	1.328600
0.05674668	204.200000	1.339300
0.05675814	204.200000	1.339300
0.05676994	204.200000	1.339300
0.05678144	200.410000	1.324100
0.05679306	200.410000	1.324100
0.05680476	200.410000	1.324100
0.05681622	201.410000	1.329100
0.05682787	201.410000	1.329100
0.05683939	201.410000	1.329100
0.05685103	201.410000	1.329100
0.05686300	199.980000	1.323700
0.05687428	199.980000	1.323700
0.05688582	202.840000	1.334100
0.05689719	202.840000	1.334100
0.05690877	202.840000	1.334100
0.05692042	200.410000	1.325600
0.05693204	200.410000	1.325600
0.05694356	200.410000	1.325600
0.05695522	200.050000	1.321600
0.05696659	200.050000	1.321600
0.05697832	200.050000	1.321600
0.05698980	200.050000	1.321600
0.05700142	199.190000	1.320600
0.05701306	199.190000	1.320600
0.05702455	198.690000	1.320600
0.05703617	198.690000	1.317600
0.05704766	198.690000	1.317600
0.05705925	197.620000	1.314900
0.05707119	197.620000	1.314900
0.05708242	197.620000	1.314900
0.05709402	198.550000	1.318700
0.05710552	198.550000	1.318700
0.05711737	198.550000	1.318700
0.05712872	198.550000	1.318700
0.05714045	198.550000	1.318700
0.05715218	198.550000	1.318700
0.05716368	198.550000	1.318700
0.05717519	197.480000	1.313300
0.05718668	197.480000	1.313300
0.05719885	199.980000	1.322300
0.05720992	199.980000	1.322300
0.05722160	199.980000	1.322300
0.05723368	199.550000	1.320600
0.05724507	199.550000	1.320600
0.05725687	199.550000	1.320600
0.05726854	201.050000	1.326900
0.05728020	201.050000	1.326900
0.05729177	201.050000	1.326900
0.05730333	199.910000	1.323000
0.05731498	199.910000	1.323000
0.05732661	199.910000	1.323000
0.05733834	199.910000	1.323000
0.05734971	196.400000	1.309900
0.05736139	196.400000	1.309900
0.05737286	198.260000	1.316400
0.05738436	198.260000	1.316400
0.05739597	198.260000	1.316400
0.05740765	197.480000	1.312300
0.05741912	197.480000	1.312300
0.05743082	197.480000	1.312300
0.05744227	194.690000	1.302800
0.05745417	194.690000	1.302800
0.05746556	194.690000	1.302800
0.05747733	200.910000	1.324900
0.05748903	200.910000	1.324900
0.05750052	200.910000	1.324900
0.05751209	198.980000	1.324900
0.05752387	198.980000	1.317200
0.05753523	198.980000	1.317200
0.05754684	197.980000	1.314500
0.05755841	197.980000	1.314500
0.05756999	197.980000	1.314500
0.05758176	199.050000	1.318100
0.05759317	199.050000	1.318100
0.05760473	199.050000	1.318100
0.05761628	197.260000	1.312300
0.05762780	197.260000	1.312300
0.05763938	197.260000	1.312300
0.05765101	197.760000	1.313100
0.05766259	197.760000	1.313100
0.05767414	197.760000	1.313100
0.05768573	188.820000	1.227200
0.05769733	188.820000	1.227200
0.05770894	188.820000	1.227200
0.05772051	184.240000	1.210400
0.05773209	184.240000	1.210400
0.05774362	184.240000	1.210400
0.05775517	186.180000	1.217500
0.05776678	186.180000	1.217500
0.05777840	186.180000	1.217500
0.05779003	189.180000	1.227100
0.05780144	189.180000	1.227100
0.05781341	189.180000	1.227100
0.05782567	189.180000	1.227100
0.05783675	185.960000	1.217000
0.05784851	185.960000	1.217000
0.05785998	185.960000	1.217000
0.05787156	185.960000	1.217000
0.05788315	185.960000	1.217000
0.05789463	188.970000	1.228100
0.05790610	188.970000	1.228100
0.05791740	188.970000	1.228100
0.05792942	187.680000	1.222900
0.05794128	187.680000	1.222900
0.05795252	187.680000	1.222900
0.05796466	184.750000	1.211000
0.05797578	184.750000	1.211000
0.05798766	197.760000	1.211000
0.05799912	197.760000	1.211000
0.05801041	197.760000	1.309900
0.05802203	197.760000	1.309900
0.05803370	195.190000	1.302400
0.05804553	195.190000	1.302400
0.05805690	195.190000	1.302400
0.05806909	193.110000	1.295700
0.05808052	193.110000	1.295700
0.05809189	193.110000	1.295700
0.05810344	195.190000	1.303400
0.05811512	195.190000	1.303400
0.05812690	195.190000	1.303400
0.05813817	194.760000	1.301800
0.05814973	194.760000	1.301800
0.05816130	194.760000	1.301800
0.05817316	146.840000	1.117000
0.05818470	146.840000	1.117000
0.05819609	146.840000	1.117000
0.05820800	14.730000	0.095700
0.05821946	14.730000	0.095700
0.05823095	14.730000	0.095700
0.05824248	14.230000	0.094600
0.05825433	14.230000	0.094600
0.05826601	14.230000	0.094600
0.05827756	14.440000	0.094600
0.05828928	14.440000	0.094600
0.05830105	14.440000	0.094600
0.05831256	14.510000	0.094600
0.05832410	14.510000	0.094600
0.05833557	14.510000	0.094600
0.05834773	14.160000	0.094000
0.05835922	14.160000	0.094000
0.05837071	14.160000	0.094000
0.05838226	14.510000	0.094600
0.05839397	14.510000	0.094600
0.05840572	14.510000	0.094600
0.05841742	14.440000	0.094400
0.05842878	14.440000	0.094400
0.05844097	14.440000	0.094400
0.05845199	13.730000	0.092600
0.05846356	13.730000	0.092600
0.05847497	14.010000	0.093100
0.05848679	14.010000	0.093100
0.05849851	14.010000	0.093100
0.05851065	14.010000	0.093100
0.05852187	16.090000	0.543100
0.05853319	16.090000	0.543100
0.05854469	16.090000	0.543100
0.05855661	51.140000	1.063600
0.05856802	51.140000	1.063600
0.05857949	51.140000	1.063600
0.05859104	51.140000	1.063600
0.05860277	51.140000	1.063600
0.05861442	51.140000	1.063600
0.05862587	10.290000	0.435700
0.05863780	10.290000	0.435700
0.05864917	3.860000	0.042800
0.05866064	3.860000	0.042800
0.05867235	3.860000	0.042800
0.05868405	3.860000	0.042800
0.05869628	3.860000	0.042900
0.05870751	3.860000	0.042900
0.05871892	3.860000	0.042900
0.05873058	65.800000	1.200400
0.05874215	65.800000	1.200400
0.05875392	65.800000	1.200400
0.05876541	58.150000	1.115300
0.05877691	58.150000	1.115300
0.05878872	58.150000	1.115300
0.05880019	53.140000	1.097800
0.05881164	53.140000	1.097800
0.05882325	3.860000	0.042800
0.05883501	3.860000	0.042800
0.05884660	3.860000	0.042800
0.05885821	3.860000	0.042800
0.05886978	126.600000	2.354000
0.05888134	126.600000	2.354000
0.05889285	126.600000	2.354000
0.05890478	4.070000	0.044000
0.05891608	4.070000	0.044000
0.05892756	4.070000	0.044000
0.05893925	4.140000	0.044200
0.05895153	4.140000	0.044200
0.05896235	4.140000	0.044200
0.05897387	14.160000	0.643100
0.05898550	14.160000	0.643100
0.05899718	9.940000	0.437700
0.05900854	9.940000	0.437700
0.05902041	9.940000	0.437700
0.05903170	9.940000	0.437700
0.05904330	4.360000	0.045200
0.05905494	4.360000	0.045200
0.05906650	4.360000	0.045200
0.05907800	4.360000	0.045200
0.05909064	4.360000	0.045200
0.05910120	4.360000	0.045200
0.05911271	4.360000	0.045100
0.05912428	4.360000	0.045100
0.05913596	33.470000	1.127000
0.05914743	33.470000	1.127000
0.05915918	33.470000	1.127000
0.05917075	33.470000	1.127000
0.05918251	4.360000	0.045400
0.05919512	4.360000	0.045400
0.05920561	4.360000	0.045400
0.05921693	4.360000	0.045200
0.05922861	4.360000	0.045200
0.05924027	4.360000	0.045200
0.05925207	4.140000	0.044400
0.05926354	4.140000	0.044400
0.05927560	4.140000	0.044400
0.05928698	14.090000	0.636400
0.05929856	14.090000	0.636400
0.05931021	14.090000	0.636400
0.05932169	14.090000	0.636400
0.05933321	14.090000	0.636400
0.05934485	14.090000	0.636400
0.05935630	4.360000	0.045200
0.05936791	4.360000	0.045200
0.05937950	4.360000	0.045200
0.05939127	4.360000	0.045200
0.05940281	4.360000	0.045200
0.05941433	4.360000	0.045200
0.05942612	17.880000	0.785000
0.05943762	17.880000	0.785000
0.05944946	17.880000	0.785000
0.05946088	4.290000	0.045000
0.05947249	4.290000	0.045000
0.05948407	4.360000	0.045200
0.05949569	4.360000	0.045200
0.05950720	4.360000	0.045200
0.05951888	4.360000	0.045200
0.05953054	4.290000	0.045000
0.05954211	4.290000	0.045000
0.05955365	4.290000	0.045000
0.05956528	4.290000	0.045000
0.05957676	4.290000	0.045000
0.05958836	4.290000	0.045000
0.05960049	4.360000	0.058000
0.05961160	4.360000	0.058000
0.05962350	4.290000	0.058000
0.05963466	4.290000	0.045100
0.05964802	4.290000	0.045100
0.05965793	4.360000	0.045200
0.05966957	4.360000	0.045200
0.05968145	4.360000	0.045200
0.05969280	4.360000	0.045200
0.05970479	4.360000	0.045200
0.05971603	4.360000	0.045200
0.05972795	4.360000	0.045200
0.05973903	28.680000	1.024400
0.05975075	28.680000	1.024400
0.05976248	28.680000	1.024400
0.05977398	34.470000	1.147200
0.05978546	34.470000	1.147200
0.05979716	4.360000	0.045300
0.05980948	4.360000	0.045300
0.05982125	4.360000	0.045300
0.05983381	4.360000	0.045200
0.05984501	4.360000	0.045200
0.05985839	4.360000	0.045200
0.05986789	4.360000	0.045200
0.05987944	8.720000	0.420800
0.05989230	8.720000	0.420800
0.05990355	8.720000	0.420800
0.05991402	4.360000	0.045300
0.05992656	4.360000	0.045300
0.05993922	4.360000	0.045300
0.05995012	4.290000	0.045200
0.05996172	4.290000	0.045200
0.05997161	4.360000	0.045100
0.05998295	4.360000	0.045100
0.05999483	4.360000	0.045100
0.06000635	4.360000	0.045200
0.06001799	4.360000	0.045200
0.06002956	4.360000	0.045200
0.06004098	4.360000	0.045200
0.06005269	4.360000	0.045200
0.06006431	4.360000	0.045200
0.06007601	4.360000	0.045200
0.06008765	32.540000	1.117000
0.06009933	32.540000	1.117000
0.06011083	4.290000	0.045200
0.06012231	4.290000	0.045200
0.06013429	4.290000	0.045200
0.06014559	35.970000	1.209700
0.06015711	35.970000	1.209700
0.06016890	35.970000	1.209700
0.06018056	4.140000	0.044400
0.06019209	4.140000	0.044400
0.06020368	4.140000	0.044400
0.06021515	4.140000	0.044400
0.06022705	4.360000	0.045300
0.06023863	4.360000	0.045300
0.06024992	4.360000	0.045300
0.06026152	4.360000	0.045200
0.06027302	4.360000	0.045200
0.06028476	4.360000	0.045200
0.06029632	4.360000	0.045200
0.06030779	4.360000	0.045200
0.06031936	9.580000	0.496400
0.06033094	9.580000	0.496400
0.06034270	9.580000	0.496400
0.06035409	9.580000	0.496400
0.06036569	28.530000	1.014100
0.06037726	28.530000	1.014100
0.06038900	28.530000	1.014100
0.06040045	11.440000	0.521600
0.06041194	11.440000	0.521600
0.06042373	11.440000	0.521600
0.06043520	4.360000	0.045200
0.06044675	4.360000	0.045200
0.06045819	39.690000	1.251900
0.06046992	39.690000	1.251900
0.06048150	39.690000	1.251900
0.06049295	4.220000	0.044700
0.06050465	4.220000	0.044700
0.06051632	4.220000	0.044700
0.06052803	4.220000	0.044700
0.06053932	4.360000	0.045200
0.06055094	4.360000	0.045200
0.06056250	4.360000	0.045200
0.06057402	4.430000	0.075100
0.06058544	4.430000	0.075100
0.06059713	4.430000	0.075100
0.06060869	4.290000	0.045100
0.06062013	4.290000	0.045100
0.06063182	21.740000	0.861400
0.06064362	21.740000	0.861400
0.06065506	21.740000	0.861400
0.06066663	4.360000	0.045200
0.06067826	4.360000	0.045200
0.06068977	4.360000	0.045200
0.06070134	4.360000	0.045200
0.06071288	4.360000	0.045200
0.06072470	4.360000	0.045200
0.06073609	4.360000	0.045200
0.06074774	4.360000	0.045100
0.06075944	4.360000	0.045100
0.06077098	4.360000	0.045100
0.06078272	4.360000	0.045100
0.06079411	4.360000	0.045100
0.06080576	4.290000	0.045100
0.06081719	4.290000	0.045100
0.06082891	4.290000	0.045100
0.06084035	62.220000	1.011900
0.06085216	62.220000	1.011900
0.06086358	62.220000	1.011900
0.06087508	62.220000	1.011900
0.06088671	4.360000	0.045200
0.06089815	4.360000	0.045200
0.06091005	4.360000	0.045200
0.06092145	4.290000	0.045100
0.06093318	4.290000	0.045100
0.06094480	6.290000	0.318400
0.06095641	6.290000	0.318400
0.06096767	6.290000	0.318400
0.06097948	4.290000	0.045100
0.06099152	4.290000	0.045100
0.06100260	4.290000	0.045100
0.06101425	4.290000	0.045100
0.06102580	22.020000	0.891500
0.06103750	22.020000	0.891500
0.06104897	22.020000	0.891500
0.06106073	4.360000	0.045200
0.06107240	4.360000	0.045200
0.06108412	4.360000	0.045200
0.06109532	4.360000	0.045000
0.06110713	4.360000	0.045000
0.06111863	4.290000	0.045100
0.06113012	4.290000	0.045100
0.06114175	4.290000	0.045100
0.06115336	37.550000	1.238600
0.06116480	37.550000	1.238600
0.06117640	37.550000	1.238600
0.06118821	37.550000	1.238600
0.06119965	4.360000	0.045200
0.06121140	4.360000	0.045200
0.06122265	4.360000	0.045200
0.06123450	4.290000	0.045100
0.06124594	4.290000	0.045100
0.06125741	13.080000	0.613600
0.06126902	13.080000	0.613600
0.06128073	13.080000	0.613600
0.06129244	4.360000	0.045100
0.06130373	4.360000	0.045100
0.06131534	4.360000	0.045100
0.06132684	23.460000	0.896400
0.06133840	23.460000	0.896400
0.06135032	23.460000	0.896400
0.06136191	23.460000	0.896400
0.06137325	4.360000	0.045200
0.06138478	4.360000	0.045200
0.06139644	4.360000	0.045200
0.06140784	4.290000	0.045200
0.06141949	4.290000	0.045200
0.06143098	10.510000	0.518400
0.06144253	10.510000	0.518400
0.06145459	10.510000	0.518400
0.06146583	12.300000	0.590300
0.06147759	12.300000	0.590300
0.06148951	12.300000	0.590300
0.06150054	12.300000	0.590300
0.06151262	12.300000	0.590300
0.06152405	12.300000	0.590300
0.06153556	12.300000	0.590300
0.06154725	15.800000	0.680800
0.06155863	15.800000	0.680800
0.06157038	15.800000	0.680800
0.06158192	4.360000	0.045000
0.06159359	4.360000	0.045000
0.06160638	4.360000	0.045200
0.06161693	4.360000	0.045200
0.06162830	4.360000	0.045200
0.06163977	26.390000	1.016100
0.06165184	26.390000	1.016100
0.06166376	26.390000	1.016100
0.06167529	4.290000	0.045000
0.06168697	4.290000	0.045000
0.06169818	4.290000	0.045000
0.06171002	4.290000	0.045000
0.06172141	4.360000	0.045000
0.06173319	4.360000	0.045000
0.06174483	11.510000	0.543000
0.06175650	11.510000	0.543000
0.06176813	11.510000	0.543000
0.06177986	14.870000	0.657600
0.06179128	14.870000	0.657600
0.06180295	14.870000	0.657600
0.06181444	18.730000	0.768200
0.06182601	18.730000	0.768200
0.06183773	18.730000	0.768200
0.06184938	4.290000	0.045200
0.06186156	4.290000	0.045200
0.06187241	4.290000	0.045200
0.06188388	4.290000	0.045200
0.06189574	4.360000	0.045200
0.06190712	4.360000	0.045200
0.06191863	4.290000	0.045200
0.06193025	4.290000	0.045200
0.06194197	4.290000	0.045200
0.06195354	34.900000	1.143200
0.06196492	34.900000	1.143200
0.06197641	34.900000	1.143200
0.06198800	4.360000	0.045200
0.06199948	4.360000	0.045200
0.06201115	4.360000	0.045200
0.06202293	4.360000	0.045200
0.06203443	4.290000	0.045100
0.06204610	4.290000	0.045100
0.06205787	4.290000	0.045100
0.06206932	11.510000	0.539600
0.06208127	11.510000	0.539600
0.06209250	4.290000	0.045100
0.06210418	4.290000	0.045100
0.06211562	4.290000	0.045100
0.06212750	17.800000	0.777400
0.06213913	17.800000	0.777400
0.06215088	17.800000	0.777400
0.06216275	4.290000	0.045000
0.06217411	4.290000	0.045000
0.06218578	4.290000	0.045000
0.06219748	4.290000	0.045000
0.06220902	4.360000	0.045000
0.06222078	4.360000	0.045000
0.06223233	4.360000	0.045000
0.06224431	4.360000	0.045000
0.06225578	4.360000	0.045000
0.06226741	33.040000	1.134600
0.06227885	33.040000	1.134600
0.06229013	33.040000	1.134600
0.06230212	1.780000	0.039300
0.06231366	1.780000	0.039300
0.06232491	1.780000	0.039300
0.06233647	1.780000	0.039200
0.06234819	1.780000	0.039200
0.06235988	1.780000	0.039200
0.06237140	1.780000	0.039200
0.06238295	1.850000	0.039300
0.06239457	1.850000	0.039300
0.06240622	1.780000	0.039100
0.06241786	1.780000	0.039100
0.06242936	1.780000	0.039100
0.06244091	1.780000	0.039400
0.06245277	1.780000	0.039400
0.06246501	1.780000	0.039400
0.06247601	1.780000	0.039200
0.06248772	1.780000	0.039200
0.06249938	1.780000	0.039200
0.06251103	1.780000	0.039200
0.06252218	1.780000	0.039200
0.06253461	1.780000	0.039200
0.06254549	1.780000	0.039200
0.06255703	1.780000	0.039200
0.06256851	1.780000	0.039200
0.06258044	1.780000	0.039100
0.06259178	1.780000	0.039100
0.06260318	1.780000	0.039100
0.06261532	1.780000	0.039200
0.06262634	1.780000	0.039200
0.06263832	1.780000	0.039200
0.06264941	1.780000	0.039300
0.06266124	1.780000	0.039300
0.06267286	1.780000	0.039300
0.06268473	1.780000	0.039200
0.06269652	1.780000	0.039200
0.06270812	1.780000	0.039200
0.06272095	1.850000	0.039200
0.06273154	1.850000	0.039200
0.06274339	1.850000	0.039200
0.06275515	1.780000	0.039100
0.06276656	1.780000	0.039100
0.06277822	1.780000	0.039100
0.06279042	1.780000	0.039200
0.06280163	1.780000	0.039200
0.06281304	1.780000	0.039200
0.06282472	1.780000	0.039200
0.06283619	1.780000	0.039200
0.06284778	1.780000	0.039200
0.06285946	1.780000	0.039200
0.06287087	1.780000	0.039200
0.06288253	1.780000	0.039200
0.06289413	1.780000	0.039200
0.06290571	1.780000	0.039300
0.06291741	1.780000	0.039300
0.06292881	1.780000	0.039300
0.06294044	1.780000	0.039300
0.06295213	1.780000	0.039300
0.06296353	1.780000	0.039300
0.06297531	1.780000	0.039300
0.06298677	1.780000	0.039300
0.06299831	1.780000	0.039200
0.06300975	1.780000	0.039200
0.06302189	1.780000	0.039200
0.06303300	1.780000	0.039400
0.06304461	1.780000	0.039400
0.06305627	1.780000	0.039400
0.06306778	1.780000	0.039200
0.06307949	1.780000	0.039200
0.06309104	1.780000	0.039200
0.06310294	1.780000	0.039200
0.06311451	1.780000	0.039200
0.06312628	1.780000	0.039200
0.06313785	1.780000	0.039300
0.06314926	1.780000	0.039300
0.06316101	1.780000	0.039300
0.06317321	1.780000	0.039200
0.06318398	1.780000	0.039200
0.06319569	1.780000	0.039200
0.06320699	1.780000	0.039200
0.06321868	1.780000	0.039200
0.06323035	1.780000	0.039200
0.06324200	1.780000	0.039300
0.06325392	1.780000	0.039300
0.06326520	1.780000	0.039300
0.06327655	1.780000	0.039200
0.06328818	1.780000	0.039200
0.06329977	1.780000	0.039200
0.06331152	1.780000	0.039300
0.06332307	1.780000	0.039300
0.06333441	1.780000	0.039300
0.06334606	1.780000	0.039200
0.06335764	1.780000	0.039200
0.06336912	1.780000	0.039200
0.06338071	1.780000	0.039200
0.06339251	1.780000	0.039200
0.06340394	1.780000	0.039200
0.06341552	1.780000	0.039100
0.06342737	1.780000	0.039100
0.06343852	1.780000	0.039100
0.06345010	1.780000	0.039000
0.06346189	1.780000	0.039000
0.06347354	1.780000	0.039000
0.06348523	1.780000	0.039100
0.06349690	1.780000	0.039100
0.06350848	1.780000	0.039100
0.06352065	1.780000	0.039200
0.06353198	1.780000	0.039200
0.06354324	1.780000	0.039200
0.06355491	1.780000	0.039200
0.06356650	1.780000	0.039200
0.06357806	1.780000	0.039200
0.06358968	1.780000	0.039200
0.06360110	1.780000	0.039200
0.06361275	1.780000	0.039200
0.06362441	1.780000	0.039200
0.06363588	1.780000	0.039200
0.06364751	1.780000	0.039200
0.06365918	1.780000	0.039300
0.06367095	1.780000	0.039300
0.06368252	1.780000	0.039300
0.06369413	1.780000	0.039300
0.06370566	1.780000	0.039300
0.06371731	1.710000	0.039200
0.06372877	1.710000	0.039200
0.06374022	1.710000	0.039200
0.06375201	1.710000	0.039200
0.06376351	1.570000	0.039000
0.06377522	1.570000	0.039000
0.06378693	1.570000	0.039000
0.06379862	1.570000	0.039000
0.06381029	1.570000	0.039000
0.06382207	1.570000	0.039000
0.06383358	1.570000	0.038900
0.06384517	1.570000	0.038900
0.06385667	1.570000	0.038900
0.06386837	1.570000	0.038900
0.06387981	1.570000	0.038900
0.06389168	1.570000	0.039000
0.06390301	1.570000	0.039000
0.06391477	1.570000	0.039000
0.06392628	1.570000	0.039000
0.06393796	1.570000	0.038900
0.06394965	1.570000	0.038900
0.06396137	1.570000	0.038900
0.06397323	0.920000	0.037700
0.06398475	0.920000	0.037700
0.06399654	0.920000	0.037700
0.06400813	0.070000	0.036000
0.06401966	0.070000	0.036000
0.06403117	0.070000	0.036000
0.06404280	0.070000	0.036000
0.06405434	0.070000	0.036000
0.06406598	0.070000	0.036100
0.06407755	0.070000	0.036100
0.06408913	0.070000	0.036100
0.06410073	0.070000	0.036100
0.06411243	0.070000	0.036000
0.06412395	0.070000	0.036000
0.06413556	0.070000	0.036000
0.06414705	0.070000	0.036000
0.06415855	0.070000	0.036000
0.06417035	0.070000	0.036000
0.06418167	0.070000	0.036000
0.06419325	0.070000	0.036000
